onset	duration	subject	task	trialHit	rt	acc
0.709718036182	0	16	face	noHit	None	1
2.69232313697	0	16	face	noHit	None	1
4.65939992545	0	16	face	noHit	None	1
6.6255000301	0	16	face	Hit	1.49002661704	1
8.59264790836	0	16	face	noHit	None	1
10.5586964569	0	16	face	noHit	None	1
12.5248036065	0	16	face	noHit	None	1
14.4918851983	0	16	face	noHit	None	1
16.4579286233	0	16	face	noHit	None	1
18.4250582488	0	16	face	noHit	None	1
20.3921238294	0	16	face	noHit	None	1
22.3582239341	0	16	face	noHit	None	1
24.3243141118	0	16	face	Hit	1.49003846533	1
26.291434771	0	16	face	noHit	None	1
28.2575147015	0	16	face	noHit	None	1
30.2246456079	0	16	face	noHit	None	1
32.1906842295	0	16	face	noHit	None	1
34.1578087314	0	16	face	noHit	None	1
36.1239242068	0	16	house	noHit	None	1
38.0912398825	0	16	house	noHit	None	1
40.0571100662	0	16	house	noHit	None	1
42.0241855738	0	16	house	Hit	1.4900432687	1
43.9902975267	0	16	house	noHit	None	1
45.9573842422	0	16	house	noHit	None	1
47.9234484817	0	16	house	noHit	None	1
49.8906331857	0	16	house	noHit	None	1
51.8566010378	0	16	house	noHit	None	1
53.8237601239	0	16	house	noHit	None	1
55.7908045697	0	16	house	Hit	1.49002437546	1
57.7569290114	0	16	house	noHit	None	1
59.7230460879	0	16	house	noHit	None	1
61.6901027023	0	16	house	noHit	None	1
63.6562156159	0	16	house	noHit	None	1
65.6232635842	0	16	house	noHit	None	1
67.5903823221	0	16	house	noHit	None	1
69.5564273482	0	16	house	noHit	None	1
71.5225226495	0	16	face	noHit	None	1
73.4896971063	0	16	face	noHit	None	1
75.4567668499	0	16	face	noHit	None	1
77.4228269265	0	16	face	noHit	None	1
79.3889004525	0	16	face	noHit	None	1
81.3560540948	0	16	face	Hit	1.49007849336	1
83.322119295	0	16	face	noHit	None	1
85.2891903195	0	16	face	noHit	None	1
87.2553083567	0	16	face	noHit	None	1
89.2223643306	0	16	face	noHit	None	1
91.188501261	0	16	face	noHit	None	1
93.1556075102	0	16	face	Hit	1.49005159453	1
95.1216410082	0	16	face	noHit	None	1
97.0887952909	0	16	face	noHit	None	1
99.0549104461	0	16	face	noHit	None	1
101.02196674	0	16	face	noHit	None	1
102.988068446	0	16	face	noHit	None	1
104.955226892	0	16	face	noHit	None	1
106.921245659	0	16	house	noHit	None	1
108.888312841	0	16	house	noHit	None	1
110.854395013	0	16	house	noHit	None	1
112.821538088	0	16	house	noHit	None	1
114.787627946	0	16	house	noHit	None	1
116.754686481	0	16	house	noHit	None	1
118.721810663	0	16	house	noHit	None	1
120.689916652	0	16	house	noHit	None	1
122.654227984	0	16	house	noHit	None	1
124.621307655	0	16	house	noHit	None	1
126.5871234	0	16	house	noHit	None	1
128.554264554	0	16	house	noHit	None	1
130.520337119	0	16	house	Hit	1.49003462264	1
132.487506132	0	16	house	noHit	None	1
134.454503505	0	16	house	noHit	None	1
136.421628007	0	16	house	noHit	None	1
138.387806567	0	16	house	noHit	None	1
140.353803559	0	16	house	Hit	1.49005543721	1
142.319904624	0	16	face	noHit	None	1
144.28696252	0	16	face	noHit	None	1
146.254086061	0	16	face	noHit	None	1
148.220161188	0	16	face	noHit	None	1
150.186237916	0	16	face	noHit	None	1
152.153380671	0	16	face	noHit	None	1
154.120421594	0	16	face	noHit	None	1
156.086509531	0	16	face	Hit	1.49002405524	1
158.053648122	0	16	face	noHit	None	1
160.019716845	0	16	face	noHit	None	1
161.985786528	0	16	face	Hit	1.49005191475	1
163.952898221	0	16	face	noHit	None	1
165.91999006	0	16	face	noHit	None	1
167.886109058	0	16	face	noHit	None	1
169.853203779	0	16	face	noHit	None	1
171.819263856	0	16	face	noHit	None	1
173.786352813	0	16	face	noHit	None	1
175.752420575	0	16	face	noHit	None	1
177.719585425	0	16	house	noHit	None	1
179.685699299	0	16	house	noHit	None	1
181.652769363	0	16	house	noHit	None	1
183.618839046	0	16	house	noHit	None	1
185.585924481	0	16	house	noHit	None	1
187.55201658	0	16	house	noHit	None	1
189.519207688	0	16	house	noHit	None	1
191.485209164	0	16	house	noHit	None	1
193.452306767	0	16	house	noHit	None	1
195.41841808	0	16	house	noHit	None	1
197.385457082	0	16	house	noHit	None	1
199.351593051	0	16	house	noHit	None	1
201.31872748	0	16	house	noHit	None	1
203.284796203	0	16	house	Hit	1.4901121169	1
205.251880677	0	16	house	noHit	None	1
207.219956565	0	16	house	noHit	None	1
209.18505757	0	16	house	noHit	None	1
211.152123791	0	16	house	Hit	1.49002661704	1
213.12319986	0	16	face	noHit	None	1
215.101307411	0	16	face	noHit	None	1
217.068396048	0	16	face	noHit	None	1
219.034709102	0	16	face	noHit	None	1
221.001674132	0	16	face	noHit	None	1
222.967724602	0	16	face	noHit	None	1
224.93475752	0	16	face	noHit	None	1
226.900891248	0	16	face	noHit	None	1
228.867989171	0	16	face	noHit	None	1
230.834077428	0	16	face	noHit	None	1
232.800195145	0	16	face	Hit	1.49006344282	1
234.767172023	0	16	face	noHit	None	1
236.734259699	0	16	face	noHit	None	1
238.700459073	0	16	face	Hit	1.49005447654	1
240.667499677	0	16	face	noHit	None	1
242.633629882	0	16	face	noHit	None	1
244.600708912	0	16	face	noHit	None	1
246.566764506	0	16	face	noHit	None	1
248.532879341	0	16	house	noHit	None	1
250.500003202	0	16	house	Hit	1.4900512743	1
252.467094401	0	16	house	noHit	None	1
254.433189382	0	16	house	noHit	None	1
256.399302616	0	16	house	noHit	None	1
258.366338095	0	16	house	noHit	None	1
260.333469322	0	16	house	noHit	None	1
262.299579994	0	16	house	noHit	None	1
264.266787754	0	16	house	noHit	None	1
266.232909634	0	16	house	noHit	None	1
268.199915012	0	16	house	noHit	None	1
270.165912966	0	16	house	Hit	1.49002501591	1
272.132956451	0	16	house	noHit	None	1
274.099137572	0	16	house	noHit	None	1
276.065202132	0	16	house	noHit	None	1
278.032269634	0	16	house	noHit	None	1
279.999370119	0	16	house	noHit	None	1
281.965468302	0	16	house	noHit	None	1
283.931574171	0	16	face	noHit	None	1
285.898658004	0	16	face	noHit	None	1
287.86571654	0	16	face	noHit	None	1
289.831840341	0	16	face	noHit	None	1
291.79911727	0	16	face	noHit	None	1
293.765026201	0	16	face	noHit	None	1
295.732159989	0	16	face	noHit	None	1
297.698221026	0	16	face	Hit	1.49006152147	1
299.665308382	0	16	face	noHit	None	1
301.631400161	0	16	face	noHit	None	1
303.598500646	0	16	face	noHit	None	1
305.56457065	0	16	face	noHit	None	1
307.53162118	0	16	face	noHit	None	1
309.497783408	0	16	face	noHit	None	1
311.464906629	0	16	face	noHit	None	1
313.430951015	0	16	face	Hit	1.49004038668	1
315.398055663	0	16	face	noHit	None	1
317.364108694	0	16	face	noHit	None	1
319.331215904	0	16	house	noHit	None	1
321.297333941	0	16	house	noHit	None	1
323.264397601	0	16	house	noHit	None	1
325.239536354	0	16	house	noHit	None	1
327.215631296	0	16	house	noHit	None	1
329.180679785	0	16	house	noHit	None	1
331.146749468	0	16	house	noHit	None	1
333.113881976	0	16	house	noHit	None	1
335.079995209	0	16	house	noHit	None	1
337.047038374	0	16	house	noHit	None	1
339.013185232	0	16	house	noHit	None	1
340.980216228	0	16	house	noHit	None	1
342.946365968	0	16	house	Hit	None	0
344.913458127	0	16	house	Hit	1.49011275735	1
346.880504174	0	16	house	noHit	None	1
348.846625733	0	16	house	noHit	None	1
350.812711748	0	16	house	noHit	None	1
352.779795261	0	16	house	noHit	None	1
354.74594404	0	16	face	noHit	None	1
356.713006419	0	16	face	noHit	None	1
358.680131881	0	16	face	noHit	None	1
360.647182731	0	16	face	noHit	None	1
362.61336001	0	16	face	noHit	None	1
364.580308389	0	16	face	noHit	None	1
366.548438074	0	16	face	noHit	None	1
368.529572065	0	16	face	Hit	1.49004486982	1
370.495661923	0	16	face	noHit	None	1
372.462772014	0	16	face	noHit	None	1
374.428807754	0	16	face	noHit	None	1
376.395967481	0	16	face	noHit	None	1
378.362034602	0	16	face	noHit	None	1
380.329117155	0	16	face	noHit	None	1
382.295157057	0	16	face	noHit	None	1
384.262265868	0	16	face	Hit	1.4900538361	1
386.229298786	0	16	face	noHit	None	1
388.195505845	0	16	face	noHit	None	1
390.162570465	0	16	house	noHit	None	1
392.128632143	0	16	house	noHit	None	1
394.095780982	0	16	house	noHit	None	1
396.061832092	0	16	house	Hit	1.49006248215	1
398.027912343	0	16	house	noHit	None	1
399.995000019	0	16	house	noHit	None	1
401.961228534	0	16	house	noHit	None	1
403.928238075	0	16	house	noHit	None	1
405.894305197	0	16	house	Hit	1.49004871251	1
407.86138935	0	16	house	noHit	None	1
409.827503865	0	16	house	noHit	None	1
411.794621642	0	16	house	noHit	None	1
413.760667949	0	16	house	noHit	None	1
415.727756266	0	16	house	noHit	None	1
417.693911129	0	16	house	noHit	None	1
419.66097703	0	16	house	noHit	None	1
421.627061443	0	16	house	noHit	None	1
423.594126384	0	16	house	noHit	None	1
425.561245121	0	16	face	noHit	None	1
427.527338822	0	16	face	noHit	None	1
429.493384168	0	16	face	noHit	None	1
431.460477288	0	16	face	Hit	1.49003334175	1
433.42660269	0	16	face	noHit	None	1
435.395669032	0	16	face	noHit	None	1
437.359792392	0	16	face	noHit	None	1
439.326852849	0	16	face	noHit	None	1
441.292981454	0	16	face	noHit	None	1
443.260092827	0	16	face	noHit	None	1
445.226084695	0	16	face	noHit	None	1
447.193403253	0	16	face	noHit	None	1
449.160274138	0	16	face	noHit	None	1
451.126435085	0	16	face	noHit	None	1
453.092495161	0	16	face	noHit	None	1
455.05964336	0	16	face	noHit	None	1
457.025656043	0	16	face	Hit	1.49002757771	1
458.992782467	0	16	face	noHit	None	1
460.959889036	0	16	house	noHit	None	1
462.925986579	0	16	house	noHit	None	1
464.892047616	0	16	house	noHit	None	1
466.859200618	0	16	house	noHit	None	1
468.825235717	0	16	house	noHit	None	1
470.792323393	0	16	house	noHit	None	1
472.758465447	0	16	house	noHit	None	1
474.725531028	0	16	house	noHit	None	1
476.691695818	0	16	house	noHit	None	1
478.658756915	0	16	house	noHit	None	1
480.625832103	0	16	house	noHit	None	1
482.592933869	0	16	house	noHit	None	1
484.558016301	0	16	house	Hit	1.49002885861	1
486.52613638	0	16	house	noHit	None	1
488.491235784	0	16	house	noHit	None	1
490.458261977	0	16	house	Hit	1.49005159453	1
492.426395825	0	16	house	noHit	None	1
494.391511241	0	16	house	noHit	None	1
496.357582205	0	16	face	noHit	None	1
498.324672763	0	16	face	noHit	None	1
500.291727136	0	16	face	Hit	1.49005447654	1
502.257834605	0	16	face	noHit	None	1
504.22394816	0	16	face	noHit	None	1
506.191016622	0	16	face	noHit	None	1
508.15809213	0	16	face	noHit	None	1
510.124180706	0	16	face	noHit	None	1
512.091348439	0	16	face	noHit	None	1
514.057421324	0	16	face	noHit	None	1
516.024491708	0	16	face	Hit	1.49003846533	1
517.990650414	0	16	face	noHit	None	1
519.957642983	0	16	face	noHit	None	1
521.92387406	0	16	face	noHit	None	1
523.890872713	0	16	face	noHit	None	1
525.856958408	0	16	face	noHit	None	1
527.824037758	0	16	face	noHit	None	1
529.790166043	0	16	face	noHit	None	1
531.757206326	0	16	house	noHit	None	1
533.723318279	0	16	house	noHit	None	1
535.689383799	0	16	house	noHit	None	1
537.656494531	0	16	house	noHit	None	1
539.623637606	0	16	house	noHit	None	1
541.594728405	0	16	house	Hit	1.49002757771	1
543.572705305	0	16	house	noHit	None	1
545.539851903	0	16	house	noHit	None	1
547.505927991	0	16	house	noHit	None	1
549.473079391	0	16	house	noHit	None	1
551.440097579	0	16	house	Hit	1.49004583049	1
553.406254683	0	16	house	noHit	None	1
555.37232981	0	16	house	noHit	None	1
557.339445026	0	16	house	noHit	None	1
559.306542629	0	16	house	noHit	None	1
561.272645616	0	16	house	noHit	None	1
563.238932731	0	16	house	noHit	None	1
565.205776396	0	16	house	noHit	None	1
