onset	duration	subject	task	trialHit	rt	acc
0.664144252502	0	1	house	noHit	None	1
2.63077262023	0	1	house	noHit	None	1
4.5969001557	0	1	house	noHit	None	1
6.56397075447	0	1	house	noHit	None	1
8.53004064939	0	1	house	noHit	None	1
10.4972239674	0	1	house	noHit	None	1
12.4632579971	0	1	house	Hit	1.49005124244	1
14.4303366016	0	1	house	noHit	None	1
16.3975522624	0	1	house	noHit	None	1
18.3635180841	0	1	house	noHit	None	1
20.3296734791	0	1	house	Hit	1.49004836041	1
22.2967376734	0	1	house	noHit	None	1
24.2628165346	0	1	house	noHit	None	1
26.2299079481	0	1	house	noHit	None	1
28.1960838375	0	1	house	noHit	None	1
30.1630650935	0	1	house	noHit	None	1
32.1302794734	0	1	house	noHit	None	1
34.0963557728	0	1	house	noHit	None	1
36.0624163812	0	1	face	noHit	None	1
38.0305574929	0	1	face	noHit	None	1
39.9956263638	0	1	face	noHit	None	1
41.9627542829	0	1	face	noHit	None	1
43.9288043238	0	1	face	noHit	None	1
45.8959344845	0	1	face	noHit	None	1
47.8619912502	0	1	face	noHit	None	1
49.8291428659	0	1	face	noHit	None	1
51.7982132713	0	1	face	noHit	None	1
53.778275728	0	1	face	noHit	None	1
55.7453847538	0	1	face	noHit	None	1
57.7125389314	0	1	face	noHit	None	1
59.6786498151	0	1	face	noHit	None	1
61.645748914	0	1	face	Hit	1.49004932109	1
63.6118066403	0	1	face	noHit	None	1
65.5779376983	0	1	face	noHit	None	1
67.5450063757	0	1	face	noHit	None	1
69.5121179633	0	1	face	Hit	1.4900265851	1
71.4782679145	0	1	house	noHit	None	1
73.4453183391	0	1	house	noHit	None	1
75.4114810993	0	1	house	noHit	None	1
77.3785235183	0	1	house	noHit	None	1
79.344618711	0	1	house	noHit	None	1
81.3118583887	0	1	house	noHit	None	1
83.277800834	0	1	house	noHit	None	1
85.2449066575	0	1	house	noHit	None	1
87.2109948053	0	1	house	noHit	None	1
89.1781240053	0	1	house	noHit	None	1
91.1442153553	0	1	house	noHit	None	1
93.1113714542	0	1	house	Hit	1.49005156267	1
95.0773997199	0	1	house	noHit	None	1
97.0444402175	0	1	house	noHit	None	1
99.0106125845	0	1	house	noHit	None	1
100.978984579	0	1	house	noHit	None	1
102.943891736	0	1	house	noHit	None	1
104.910863065	0	1	house	Hit	1.49003010758	1
106.877027746	0	1	face	noHit	None	1
108.844097064	0	1	face	noHit	None	1
110.810469892	0	1	face	Hit	1.49004804019	1
112.777324659	0	1	face	noHit	None	1
114.74337406	0	1	face	noHit	None	1
116.710465473	0	1	face	noHit	None	1
118.676587244	0	1	face	noHit	None	1
120.643672253	0	1	face	noHit	None	1
122.609756879	0	1	face	noHit	None	1
124.576897607	0	1	face	Hit	1.49004163568	1
126.542984153	0	1	face	noHit	None	1
128.510078769	0	1	face	noHit	None	1
130.476233844	0	1	face	noHit	None	1
132.444403135	0	1	face	noHit	None	1
134.409417888	0	1	face	noHit	None	1
136.376410992	0	1	face	noHit	None	1
138.342574713	0	1	face	noHit	None	1
140.309663245	0	1	face	noHit	None	1
142.275777331	0	1	house	noHit	None	1
144.242846328	0	1	house	noHit	None	1
146.20912501	0	1	house	noHit	None	1
148.176075524	0	1	house	Hit	1.49005348402	1
150.143153488	0	1	house	noHit	None	1
152.10934635	0	1	house	noHit	None	1
154.076405421	0	1	house	noHit	None	1
156.042437529	0	1	house	noHit	None	1
158.009616684	0	1	house	noHit	None	1
159.975706113	0	1	house	noHit	None	1
161.94280297	0	1	house	noHit	None	1
163.909873889	0	1	house	noHit	None	1
165.876017756	0	1	house	noHit	None	1
167.843064978	0	1	house	noHit	None	1
169.809163693	0	1	house	Hit	1.49004932109	1
171.77540651	0	1	house	noHit	None	1
173.742324361	0	1	house	noHit	None	1
175.708421796	0	1	house	noHit	None	1
177.675584939	0	1	face	noHit	None	1
179.64163466	0	1	face	noHit	None	1
181.608725433	0	1	face	noHit	None	1
183.574890435	0	1	face	noHit	None	1
185.541930933	0	1	face	noHit	None	1
187.508006912	0	1	face	noHit	None	1
189.475154044	0	1	face	noHit	None	1
191.441246035	0	1	face	noHit	None	1
193.408356662	0	1	face	noHit	None	1
195.374429118	0	1	face	noHit	None	1
197.341648302	0	1	face	noHit	None	1
199.30766568	0	1	face	noHit	None	1
201.274742043	0	1	face	noHit	None	1
203.240905123	0	1	face	Hit	1.49004996154	1
205.207943379	0	1	face	Hit	1.49004451771	1
207.175038315	0	1	face	noHit	None	1
209.141118777	0	1	face	noHit	None	1
211.107257521	0	1	face	noHit	None	1
213.074316591	0	1	house	Hit	None	0
215.040493762	0	1	house	noHit	None	1
217.007567563	0	1	house	noHit	None	1
218.973642901	0	1	house	Hit	1.49004964132	1
220.940821736	0	1	house	noHit	None	1
222.906785317	0	1	house	noHit	None	1
224.876901898	0	1	house	noHit	None	1
226.857008546	0	1	house	noHit	None	1
228.823143126	0	1	house	noHit	None	1
230.790243826	0	1	house	noHit	None	1
232.75631308	0	1	house	noHit	None	1
234.723431072	0	1	house	noHit	None	1
236.689567254	0	1	house	noHit	None	1
238.656564841	0	1	house	noHit	None	1
240.622701023	0	1	house	noHit	None	1
242.590014352	0	1	house	noHit	None	1
244.555915168	0	1	house	noHit	None	1
246.522993773	0	1	house	noHit	None	1
248.489105617	0	1	face	noHit	None	1
250.456232256	0	1	face	noHit	None	1
252.422319443	0	1	face	noHit	None	1
254.389348092	0	1	face	noHit	None	1
256.355783364	0	1	face	noHit	None	1
258.322591698	0	1	face	noHit	None	1
260.288679846	0	1	face	noHit	None	1
262.25581449	0	1	face	noHit	None	1
264.222924156	0	1	face	Hit	1.49002850645	1
266.18899245	0	1	face	noHit	None	1
268.156249099	0	1	face	noHit	None	1
270.12219923	0	1	face	noHit	None	1
272.089262784	0	1	face	noHit	None	1
274.055402808	0	1	face	Hit	1.49005316379	1
276.022517918	0	1	face	noHit	None	1
277.988561875	0	1	face	noHit	None	1
279.954968967	0	1	face	noHit	None	1
281.921807402	0	1	face	noHit	None	1
283.887949348	0	1	house	noHit	None	1
285.855241863	0	1	house	noHit	None	1
287.822134737	0	1	house	noHit	None	1
289.788347132	0	1	house	noHit	None	1
291.755338315	0	1	house	noHit	None	1
293.721380991	0	1	house	Hit	1.49005668627	1
295.688460876	0	1	house	noHit	None	1
297.654637086	0	1	house	noHit	None	1
299.621703842	0	1	house	Hit	1.49004643906	1
301.587805439	0	1	house	noHit	None	1
303.554863869	0	1	house	noHit	None	1
305.521001011	0	1	house	noHit	None	1
307.488218593	0	1	house	noHit	None	1
309.454140865	0	1	house	noHit	None	1
311.421287036	0	1	house	noHit	None	1
313.387368459	0	1	house	noHit	None	1
315.364457625	0	1	house	noHit	None	1
317.337539812	0	1	house	noHit	None	1
319.304659405	0	1	face	noHit	None	1
321.2707578	0	1	face	noHit	None	1
323.237899809	0	1	face	noHit	None	1
325.204018378	0	1	face	noHit	None	1
327.171075848	0	1	face	noHit	None	1
329.137160793	0	1	face	noHit	None	1
331.104288713	0	1	face	noHit	None	1
333.070459478	0	1	face	noHit	None	1
335.037455785	0	1	face	noHit	1.49001089406	0
337.003560584	0	1	face	noHit	None	1
338.970676335	0	1	face	noHit	None	1
340.936823724	0	1	face	Hit	1.49003523118	1
342.903840205	0	1	face	noHit	None	1
344.869936679	0	1	face	noHit	None	1
346.837040901	0	1	face	Hit	1.49010439983	1
348.803143139	0	1	face	noHit	None	1
350.770255367	0	1	face	noHit	None	1
352.736385464	0	1	face	noHit	None	1
354.703435889	0	1	house	noHit	None	1
356.669569508	0	1	house	noHit	None	1
358.636654197	0	1	house	noHit	None	1
360.602720249	0	1	house	noHit	None	1
362.569900685	0	1	house	noHit	None	1
364.5359709	0	1	house	Hit	1.4900304278	1
366.503046943	0	1	house	noHit	None	1
368.469169355	0	1	house	noHit	None	1
370.436328016	0	1	house	noHit	None	1
372.402371652	0	1	house	noHit	None	1
374.369434565	0	1	house	Hit	1.49004996154	1
376.335535522	0	1	house	noHit	None	1
378.302610924	0	1	house	noHit	None	1
380.268701314	0	1	house	noHit	None	1
382.235864778	0	1	house	noHit	None	1
384.201964133	0	1	house	noHit	None	1
386.169040496	0	1	house	noHit	None	1
388.135128324	0	1	house	noHit	None	1
390.102156653	0	1	face	noHit	None	1
392.0693531	0	1	face	noHit	None	1
394.035413709	0	1	face	noHit	None	1
396.001555974	0	1	face	noHit	1.49001505699	0
397.968647708	0	1	face	noHit	None	1
399.934722406	0	1	face	Hit	1.49048738921	1
401.901786601	0	1	face	noHit	None	1
403.867916698	0	1	face	noHit	None	1
405.835015156	0	1	face	noHit	None	1
407.801151018	0	1	face	noHit	None	1
409.768231864	0	1	face	noHit	None	1
411.734302079	0	1	face	noHit	None	1
413.701396054	0	1	face	noHit	None	1
415.667507578	0	1	face	noHit	None	1
417.634604115	0	1	face	noHit	None	1
419.600705072	0	1	face	noHit	None	1
421.567805452	0	1	face	Hit	1.49005092222	1
423.534937854	0	1	face	noHit	None	1
425.501041372	0	1	house	Hit	None	0
427.467137206	0	1	house	noHit	None	1
429.43430067	0	1	house	noHit	None	1
431.400332458	0	1	house	noHit	None	1
433.36737936	0	1	house	noHit	None	1
435.333508497	0	1	house	noHit	None	1
437.300609196	0	1	house	noHit	None	1
439.266737372	0	1	house	noHit	None	1
441.233879381	0	1	house	noHit	None	1
443.20090739	0	1	house	noHit	None	1
445.167029162	0	1	house	noHit	None	1
447.133087208	0	1	house	noHit	None	1
449.100165172	0	1	house	noHit	None	1
451.06629623	0	1	house	noHit	None	1
453.033378997	0	1	house	noHit	None	1
454.999575702	0	1	house	noHit	None	1
456.966577452	0	1	house	Hit	1.49005092222	1
458.933670146	0	1	house	noHit	None	1
460.899785193	0	1	face	noHit	None	1
462.865880386	0	1	face	noHit	None	1
464.833132232	0	1	face	noHit	1.49003363005	0
466.799027604	0	1	face	noHit	None	1
468.766200034	0	1	face	noHit	None	1
470.733315785	0	1	face	noHit	None	1
472.699372871	0	1	face	noHit	None	1
474.665498485	0	1	face	noHit	None	1
476.632647539	0	1	face	noHit	None	1
478.59967811	0	1	face	Hit	1.49002722555	1
480.565782909	0	1	face	noHit	None	1
482.53289962	0	1	face	noHit	None	1
484.498958307	0	1	face	noHit	None	1
486.466074378	0	1	face	Hit	None	0
488.432148756	0	1	face	noHit	None	1
490.399281158	0	1	face	noHit	None	1
492.365365784	0	1	face	noHit	None	1
494.331499724	0	1	face	noHit	None	1
496.299566223	0	1	house	noHit	None	1
498.265699522	0	1	house	noHit	None	1
500.231738355	0	1	house	noHit	None	1
502.198841297	0	1	house	noHit	None	1
504.16496467	0	1	house	noHit	None	1
506.132006768	0	1	house	Hit	1.4900570065	1
508.098150635	0	1	house	Hit	1.49004355704	1
510.064242626	0	1	house	noHit	None	1
512.031359977	0	1	house	noHit	None	1
513.998469003	0	1	house	noHit	None	1
515.965559136	0	1	house	noHit	None	1
517.931679626	0	1	house	noHit	None	1
519.898810748	0	1	house	noHit	None	1
521.864888008	0	1	house	noHit	None	1
523.832962192	0	1	house	noHit	None	1
525.799034969	0	1	house	noHit	None	1
527.765135926	0	1	house	noHit	None	1
529.731278192	0	1	house	noHit	None	1
531.697363458	0	1	face	noHit	None	1
533.66441068	0	1	face	noHit	None	1
535.631553009	0	1	face	noHit	None	1
537.597634752	0	1	face	noHit	None	1
539.563869243	0	1	face	noHit	None	1
541.530820078	0	1	face	noHit	None	1
543.496934484	0	1	face	noHit	None	1
545.463027755	0	1	face	noHit	None	1
547.430180332	0	1	face	noHit	None	1
549.397232037	0	1	face	noHit	None	1
551.363357011	0	1	face	noHit	1.49003330983	0
553.330479166	0	1	face	noHit	None	1
555.296535291	0	1	face	noHit	None	1
557.263646558	0	1	face	noHit	None	1
559.229791386	0	1	face	noHit	None	1
561.196836687	0	1	face	noHit	1.49003010758	0
563.162952374	0	1	face	Hit	1.49004003456	1
565.130035462	0	1	face	Hit	1.49006052897	1
