onset	duration	subject	task	trialHit	rt	acc
0.725889844729	0	18	face	noHit	None	1
2.70438601098	0	18	face	noHit	None	1
4.67049710644	0	18	face	noHit	None	1
6.63759513922	0	18	face	noHit	None	1
8.60473928459	0	18	face	noHit	None	1
10.5708241215	0	18	face	noHit	None	1
12.5368951887	0	18	face	noHit	None	1
14.5039724067	0	18	face	Hit	1.49003776108	1
16.4711767546	0	18	face	noHit	None	1
18.4371940238	0	18	face	Hit	1.49003327791	1
20.4042971802	0	18	face	noHit	None	1
22.3705357257	0	18	face	noHit	None	1
24.3365353824	0	18	face	noHit	None	1
26.3036324545	0	18	face	noHit	None	1
28.2697602018	0	18	face	noHit	None	1
30.2368774481	0	18	face	noHit	None	1
32.204035043	0	18	face	noHit	None	1
34.1700318177	0	18	face	noHit	None	1
36.1381497711	0	18	house	noHit	None	1
38.1033014687	0	18	house	noHit	None	1
40.0703995015	0	18	house	noHit	None	1
42.0365794456	0	18	house	noHit	None	1
44.0026710072	0	18	house	noHit	None	1
45.9697001914	0	18	house	noHit	None	1
47.9357638933	0	18	house	noHit	None	1
49.9028993926	0	18	house	Hit	1.49002559248	1
51.8700409762	0	18	house	noHit	None	1
53.836127094	0	18	house	noHit	None	1
55.8032264077	0	18	house	noHit	None	1
57.7693301379	0	18	house	noHit	None	1
59.7354380311	0	18	house	noHit	None	1
61.7025741708	0	18	house	noHit	None	1
63.6696549114	0	18	house	noHit	None	1
65.6356814671	0	18	house	Hit	1.49004832855	1
67.6018607707	0	18	house	noHit	None	1
69.5689780171	0	18	house	noHit	None	1
71.5360485104	0	18	face	noHit	None	1
73.5021887465	0	18	face	noHit	None	1
75.4693015097	0	18	face	noHit	None	1
77.4353309474	0	18	face	noHit	None	1
79.4024658062	0	18	face	noHit	None	1
81.3685573679	0	18	face	Hit	1.4900307161	1
83.3356992717	0	18	face	noHit	None	1
85.3018097267	0	18	face	noHit	None	1
87.2688888661	0	18	face	noHit	None	1
89.2350252594	0	18	face	noHit	None	1
91.2020915898	0	18	face	noHit	None	1
93.1683022757	0	18	face	Hit	1.49003295769	1
95.1353695667	0	18	face	noHit	None	1
97.1014006056	0	18	face	noHit	None	1
99.0685393071	0	18	face	noHit	None	1
101.03563734	0	18	face	noHit	None	1
103.001793587	0	18	face	noHit	None	1
104.967833593	0	18	face	noHit	None	1
106.935151941	0	18	house	Hit	None	0
108.904055409	0	18	house	noHit	None	1
110.884299691	0	18	house	noHit	None	1
112.851355133	0	18	house	noHit	None	1
114.817413712	0	18	house	Hit	1.49003968244	1
116.784863033	0	18	house	noHit	None	1
118.750587935	0	18	house	noHit	None	1
120.717670597	0	18	house	noHit	None	1
122.683798985	0	18	house	noHit	None	1
124.65085795	0	18	house	noHit	None	1
126.616971928	0	18	house	noHit	None	1
128.58411223	0	18	house	noHit	None	1
130.551249011	0	18	house	noHit	None	1
132.517395011	0	18	house	noHit	None	1
134.483411319	0	18	house	noHit	None	1
136.450513835	0	18	house	noHit	None	1
138.417598418	0	18	house	noHit	None	1
140.383738654	0	18	house	noHit	None	1
142.349839823	0	18	face	noHit	None	1
144.316967957	0	18	face	noHit	None	1
146.284131316	0	18	face	noHit	None	1
148.250194377	0	18	face	noHit	None	1
150.217295292	0	18	face	noHit	None	1
152.183393258	0	18	face	noHit	None	1
154.150484566	0	18	face	noHit	None	1
156.117582279	0	18	face	noHit	None	1
158.083708745	0	18	face	noHit	None	1
160.052813316	0	18	face	Hit	1.49002239022	1
162.0329769	0	18	face	noHit	None	1
164.000041309	0	18	face	noHit	None	1
165.966308035	0	18	face	noHit	None	1
167.933235387	0	18	face	noHit	None	1
169.89934328	0	18	face	noHit	None	1
171.866430105	0	18	face	noHit	None	1
173.832496369	0	18	face	Hit	1.49005569375	1
175.799647559	0	18	face	noHit	None	1
177.766748794	0	18	house	noHit	None	1
179.732825305	0	18	house	noHit	None	1
181.698984434	0	18	house	noHit	None	1
183.6661004	0	18	house	noHit	None	1
185.633174095	0	18	house	Hit	1.49003135656	1
187.599308888	0	18	house	noHit	None	1
189.565386359	0	18	house	noHit	None	1
191.532489516	0	18	house	noHit	None	1
193.498591004	0	18	house	noHit	None	1
195.465652531	0	18	house	Hit	1.4900428847	1
197.431774194	0	18	house	noHit	None	1
199.398884396	0	18	house	noHit	None	1
201.364985564	0	18	house	noHit	None	1
203.332178704	0	18	house	noHit	None	1
205.298178361	0	18	house	noHit	None	1
207.265409608	0	18	house	noHit	None	1
209.231407984	0	18	house	noHit	None	1
211.198508258	0	18	house	noHit	None	1
213.164627679	0	18	face	noHit	None	1
215.13172251	0	18	face	noHit	None	1
217.097863707	0	18	face	noHit	None	1
219.064971987	0	18	face	noHit	None	1
221.032076104	0	18	face	noHit	None	1
222.99817439	0	18	face	noHit	None	1
224.964324233	0	18	face	Hit	1.49003327791	1
226.93135694	0	18	face	Hit	1.49002623293	1
228.898498523	0	18	face	noHit	None	1
230.86459745	0	18	face	noHit	None	1
232.830664674	0	18	face	noHit	None	1
234.797811702	0	18	face	noHit	None	1
236.764893083	0	18	face	noHit	None	1
238.731014746	0	18	face	noHit	None	1
240.697116555	0	18	face	noHit	None	1
242.664206262	0	18	face	noHit	None	1
244.630354824	0	18	face	noHit	None	1
246.597412508	0	18	face	noHit	None	1
248.563535131	0	18	house	noHit	None	1
250.530668709	0	18	house	noHit	None	1
252.496743619	0	18	house	noHit	None	1
254.464087586	0	18	house	Hit	1.49002431158	1
256.430913746	0	18	house	noHit	None	1
258.396992179	0	18	house	noHit	None	1
260.363178207	0	18	house	noHit	None	1
262.330233009	0	18	house	Hit	1.49005377239	1
264.297346413	0	18	house	noHit	None	1
266.26343093	0	18	house	noHit	None	1
268.230558423	0	18	house	noHit	None	1
270.196682968	0	18	house	noHit	None	1
272.163776518	0	18	house	noHit	None	1
274.130032996	0	18	house	noHit	None	1
276.097008062	0	18	house	noHit	None	1
278.063129725	0	18	house	noHit	None	1
280.030350404	0	18	house	noHit	None	1
281.99828807	0	18	house	noHit	None	1
283.963415751	0	18	face	noHit	None	1
285.93053716	0	18	face	noHit	None	1
287.896629362	0	18	face	Hit	1.49004032289	1
289.862761913	0	18	face	noHit	None	1
291.829829524	0	18	face	noHit	None	1
293.795986092	0	18	face	noHit	None	1
295.763035771	0	18	face	noHit	None	1
297.729162237	0	18	face	noHit	None	1
299.69633168	0	18	face	noHit	None	1
301.662383213	0	18	face	Hit	1.49003455882	1
303.629460111	0	18	face	noHit	None	1
305.595578252	0	18	face	noHit	None	1
307.562676925	0	18	face	noHit	None	1
309.528798588	0	18	face	noHit	None	1
311.495918716	0	18	face	noHit	None	1
313.462076885	0	18	face	noHit	None	1
315.429118878	0	18	face	noHit	None	1
317.39519635	0	18	face	noHit	None	1
319.362323844	0	18	house	noHit	None	1
321.329395298	0	18	house	noHit	None	1
323.29555923	0	18	house	noHit	None	1
325.26161909	0	18	house	Hit	1.49005313194	1
327.239729383	0	18	house	noHit	None	1
329.211826468	0	18	house	noHit	None	1
331.178929625	0	18	house	noHit	None	1
333.145017343	0	18	house	noHit	None	1
335.112170135	0	18	house	Hit	1.49004736787	1
337.07830909	0	18	house	noHit	None	1
339.045386308	0	18	house	noHit	None	1
341.011879113	0	18	house	noHit	None	1
342.97855829	0	18	house	noHit	None	1
344.94478915	0	18	house	noHit	None	1
346.911779907	0	18	house	noHit	None	1
348.878862889	0	18	house	noHit	None	1
350.84492403	0	18	house	noHit	None	1
352.811124148	0	18	house	noHit	None	1
354.777254137	0	18	face	noHit	None	1
356.7443384	0	18	face	noHit	None	1
358.711445079	0	18	face	noHit	None	1
360.677525432	0	18	face	noHit	None	1
362.644623145	0	18	face	noHit	None	1
364.610764021	0	18	face	noHit	None	1
366.577826189	0	18	face	noHit	None	1
368.54395938	0	18	face	Hit	1.49003391837	1
370.51112434	0	18	face	noHit	None	1
372.47714289	0	18	face	noHit	None	1
374.444299844	0	18	face	noHit	None	1
376.410390766	0	18	face	noHit	None	1
378.377501287	0	18	face	Hit	1.49004512629	1
380.344590994	0	18	face	noHit	None	1
382.310677752	0	18	face	noHit	None	1
384.276746898	0	18	face	noHit	None	1
386.243870229	0	18	face	noHit	None	1
388.210023914	0	18	face	noHit	None	1
390.17711138	0	18	house	noHit	None	1
392.143221194	0	18	house	noHit	None	1
394.110341963	0	18	house	noHit	None	1
396.076390294	0	18	house	noHit	None	1
398.043494411	0	18	house	noHit	None	1
400.009586934	0	18	house	noHit	None	1
401.976721472	0	18	house	Hit	1.49004832855	1
403.942860427	0	18	house	noHit	None	1
405.909963584	0	18	house	noHit	None	1
407.876037533	0	18	house	noHit	None	1
409.843148055	0	18	house	noHit	None	1
411.80930174	0	18	house	noHit	None	1
413.776360065	0	18	house	noHit	None	1
415.742492295	0	18	house	noHit	None	1
417.709566311	0	18	house	Hit	1.49004096334	1
419.675689575	0	18	house	noHit	None	1
421.643496909	0	18	house	noHit	None	1
423.608874366	0	18	house	noHit	None	1
425.576012427	0	18	face	noHit	None	1
427.542144658	0	18	face	Hit	1.49003423859	1
429.509271191	0	18	face	noHit	None	1
431.475358269	0	18	face	noHit	None	1
433.442667011	0	18	face	noHit	None	1
435.408722067	0	18	face	noHit	None	1
437.37563693	0	18	face	noHit	None	1
439.342676361	0	18	face	noHit	None	1
441.309012896	0	18	face	noHit	None	1
443.274915204	0	18	face	noHit	None	1
445.242063512	0	18	face	noHit	None	1
447.208139383	0	18	face	noHit	None	1
449.17527136	0	18	face	noHit	None	1
451.141333461	0	18	face	noHit	None	1
453.108489454	0	18	face	noHit	None	1
455.074747534	0	18	face	Hit	1.49004800832	1
457.041643824	0	18	face	noHit	None	1
459.008762031	0	18	face	noHit	None	1
460.974945177	0	18	house	noHit	None	1
462.941014964	0	18	house	noHit	None	1
464.908536656	0	18	house	noHit	None	1
466.874246828	0	18	house	noHit	None	1
468.841280175	0	18	house	noHit	None	1
470.807402478	0	18	house	Hit	1.49004000266	1
472.774469129	0	18	house	noHit	None	1
474.740584387	0	18	house	noHit	None	1
476.707711561	0	18	house	noHit	None	1
478.674064107	0	18	house	noHit	None	1
480.640955273	0	18	house	noHit	None	1
482.607064768	0	18	house	noHit	None	1
484.574143907	0	18	house	noHit	None	1
486.541342491	0	18	house	noHit	None	1
488.507456468	0	18	house	noHit	None	1
490.473474378	0	18	house	noHit	None	1
492.440587461	0	18	house	Hit	1.49002559248	1
494.407683253	0	18	house	noHit	None	1
496.373832135	0	18	face	noHit	None	1
498.339905444	0	18	face	noHit	None	1
500.307393192	0	18	face	Hit	1.49002719361	1
502.273087353	0	18	face	noHit	None	1
504.240217728	0	18	face	noHit	None	1
506.207309356	0	18	face	noHit	None	1
508.17340412	0	18	face	noHit	None	1
510.139524823	0	18	face	noHit	None	1
512.134601664	0	18	face	noHit	None	1
514.106753828	0	18	face	noHit	None	1
516.072827777	0	18	face	noHit	None	1
518.039955591	0	18	face	Hit	1.49004448583	1
520.007024163	0	18	face	noHit	None	1
521.973135899	0	18	face	noHit	None	1
523.939280618	0	18	face	noHit	None	1
525.906355915	0	18	face	noHit	None	1
527.87249455	0	18	face	noHit	None	1
529.839555757	0	18	face	noHit	None	1
531.806727121	0	18	house	noHit	None	1
533.772793705	0	18	house	noHit	None	1
535.73891761	0	18	house	noHit	None	1
537.70613989	0	18	house	noHit	None	1
539.673074608	0	18	house	noHit	None	1
541.63919563	0	18	house	noHit	None	1
543.605314091	0	18	house	noHit	None	1
545.572484815	0	18	house	noHit	None	1
547.538535067	0	18	house	Hit	1.49002751384	1
549.505612926	0	18	house	noHit	None	1
551.47308082	0	18	house	noHit	None	1
553.438839667	0	18	house	Hit	1.49007778936	1
555.406268813	0	18	house	noHit	None	1
557.372000441	0	18	house	noHit	None	1
559.339144586	0	18	house	noHit	None	1
561.30523903	0	18	house	noHit	None	1
563.272370686	0	18	house	noHit	None	1
565.238448478	0	18	house	noHit	None	1
