onset	duration	subject	task	trialHit	rt	acc
0.670604024181	0	7	house	noHit	None	1
2.65315314161	0	7	house	noHit	None	1
4.62019032785	0	7	house	noHit	None	1
6.58631199601	0	7	house	noHit	None	1
8.55239427672	0	7	house	noHit	None	1
10.5195569904	0	7	house	noHit	None	1
12.4865269298	0	7	house	Hit	1.490035295	1
14.4526521204	0	7	house	noHit	None	1
16.4197306154	0	7	house	noHit	None	1
18.3858164186	0	7	house	noHit	None	1
20.3519092667	0	7	house	noHit	None	1
22.3190008909	0	7	house	noHit	None	1
24.2861072453	0	7	house	noHit	None	1
26.2521571835	0	7	house	noHit	None	1
28.2192411223	0	7	house	noHit	None	1
30.1853368524	0	7	house	noHit	None	1
32.1524412855	0	7	house	Hit	1.49005098593	1
34.1184893023	0	7	house	noHit	None	1
36.0846305041	0	7	face	Hit	None	0
38.0517083587	0	7	face	Hit	1.49003081187	1
40.0178066505	0	7	face	noHit	None	1
41.9848220616	0	7	face	noHit	None	1
43.9509251568	0	7	face	noHit	None	1
45.9180164608	0	7	face	noHit	None	1
47.8841323649	0	7	face	noHit	None	1
49.8511849218	0	7	face	noHit	None	1
51.8182371586	0	7	face	noHit	None	1
53.7843642705	0	7	face	noHit	None	1
55.7514831137	0	7	face	noHit	None	1
57.7175612315	0	7	face	noHit	None	1
59.6846448501	0	7	face	noHit	None	1
61.6507178443	0	7	face	noHit	None	1
63.6177889742	0	7	face	noHit	None	1
65.5838238619	0	7	face	noHit	None	1
67.5510019463	0	7	face	noHit	None	1
69.5171168898	0	7	face	noHit	None	1
71.4841640029	0	7	house	noHit	None	1
73.4502690195	0	7	house	noHit	None	1
75.4174589522	0	7	house	noHit	None	1
77.38339361	0	7	house	noHit	None	1
79.350523661	0	7	house	Hit	1.49006603643	1
81.3165707171	0	7	house	noHit	None	1
83.2836697064	0	7	house	noHit	None	1
85.2509108748	0	7	house	noHit	None	1
87.2168413698	0	7	house	noHit	None	1
89.183006268	0	7	house	Hit	1.49006283419	1
91.1500565834	0	7	house	noHit	None	1
93.1161266957	0	7	house	noHit	None	1
95.0831952638	0	7	house	noHit	None	1
97.0492791456	0	7	house	noHit	None	1
99.0163563597	0	7	house	noHit	None	1
100.982471944	0	7	house	noHit	None	1
102.949528023	0	7	house	noHit	None	1
104.915594293	0	7	house	noHit	None	1
106.882901427	0	7	face	noHit	None	1
108.850974855	0	7	face	noHit	None	1
110.815894086	0	7	face	noHit	None	1
112.781986934	0	7	face	noHit	None	1
114.749059985	0	7	face	noHit	None	1
116.715162119	0	7	face	noHit	None	1
118.68224798	0	7	face	noHit	None	1
120.648366125	0	7	face	noHit	None	1
122.615390182	0	7	face	noHit	None	1
124.581503525	0	7	face	noHit	None	1
126.548575935	0	7	face	Hit	None	0
128.514574638	0	7	face	noHit	None	1
130.48174984	0	7	face	noHit	None	1
132.448814566	0	7	face	noHit	None	1
134.41493047	0	7	face	Hit	1.49004970504	1
136.380977206	0	7	face	noHit	None	1
138.348109178	0	7	face	noHit	None	1
140.315148606	0	7	face	noHit	None	1
142.281245937	0	7	house	noHit	None	1
144.247339746	0	7	house	noHit	None	1
146.214577072	0	7	house	noHit	None	1
148.180558802	0	7	house	noHit	None	1
150.147614561	0	7	house	noHit	None	1
152.114643742	0	7	house	noHit	None	1
154.080773736	0	7	house	noHit	None	1
156.046847371	0	7	house	noHit	None	1
158.013974219	0	7	house	noHit	None	1
159.980062264	0	7	house	Hit	1.49004746348	1
161.947085681	0	7	house	noHit	None	1
163.915213867	0	7	house	noHit	None	1
165.880279119	0	7	house	noHit	None	1
167.846392782	0	7	house	noHit	None	1
169.813448861	0	7	house	noHit	None	1
171.779552597	0	7	house	noHit	None	1
173.747665733	0	7	house	noHit	None	1
175.713702862	0	7	house	Hit	1.49003561522	1
177.682790117	0	7	face	noHit	None	1
179.662874477	0	7	face	noHit	None	1
181.630009011	0	7	face	noHit	None	1
183.596110185	0	7	face	noHit	None	1
185.563178113	0	7	face	noHit	None	1
187.529219725	0	7	face	noHit	None	1
189.496325759	0	7	face	noHit	None	1
191.463477906	0	7	face	noHit	None	1
193.429507029	0	7	face	Hit	1.49006891843	1
195.395556967	0	7	face	noHit	None	1
197.362722563	0	7	face	noHit	None	1
199.3287424	0	7	face	noHit	None	1
201.29584139	0	7	face	noHit	None	1
203.261931356	0	7	face	noHit	None	1
205.228996722	0	7	face	Hit	1.49004394102	1
207.195108783	0	7	face	noHit	None	1
209.162194323	0	7	face	noHit	None	1
211.128251306	0	7	face	noHit	None	1
213.095360222	0	7	house	noHit	None	1
215.06142361	0	7	house	noHit	None	1
217.028532206	0	7	house	noHit	None	1
218.99460552	0	7	house	noHit	None	1
220.961695864	0	7	house	noHit	None	1
222.927750605	0	7	house	noHit	None	1
224.894865606	0	7	house	noHit	None	1
226.860909459	0	7	house	noHit	None	1
228.828060965	0	7	house	noHit	None	1
230.794186796	0	7	house	noHit	None	1
232.761293791	0	7	house	noHit	None	1
234.727324516	0	7	house	noHit	None	1
236.694600589	0	7	house	noHit	None	1
238.661474781	0	7	house	noHit	None	1
240.627501664	0	7	house	Hit	1.4900532275	1
242.593638062	0	7	house	noHit	None	1
244.560755944	0	7	house	noHit	None	1
246.526815489	0	7	house	Hit	1.49005707018	1
248.493928568	0	7	face	Hit	None	0
250.460016613	0	7	face	noHit	None	1
252.427100232	0	7	face	noHit	None	1
254.393190518	0	7	face	noHit	None	1
256.360358676	0	7	face	noHit	None	1
258.327377289	0	7	face	noHit	None	1
260.295465448	0	7	face	noHit	None	1
262.259508867	0	7	face	noHit	None	1
264.226596329	0	7	face	noHit	None	1
266.1926658	0	7	face	noHit	None	1
268.159781761	0	7	face	noHit	None	1
270.126844566	0	7	face	noHit	None	1
272.092953425	0	7	face	noHit	None	1
274.059044031	0	7	face	Hit	1.49005354772	1
276.026133734	0	7	face	noHit	None	1
277.992212172	0	7	face	noHit	None	1
279.959271774	0	7	face	noHit	None	1
281.925373909	0	7	face	noHit	None	1
283.892503639	0	7	house	noHit	None	1
285.859578292	0	7	house	noHit	None	1
287.825641039	0	7	house	noHit	None	1
289.793741046	0	7	house	noHit	None	1
291.758805977	0	7	house	noHit	None	1
293.726129123	0	7	house	noHit	None	1
295.691992691	0	7	house	noHit	None	1
297.659088158	0	7	house	noHit	None	1
299.625140018	0	7	house	noHit	None	1
301.591178748	0	7	house	noHit	None	1
303.5583389	0	7	house	noHit	None	1
305.525378968	0	7	house	noHit	None	1
307.491470535	0	7	house	noHit	None	1
309.458566002	0	7	house	Hit	1.49008845205	1
311.424687991	0	7	house	Hit	1.49004233991	1
313.391777693	0	7	house	noHit	None	1
315.357809059	0	7	house	noHit	None	1
317.323910553	0	7	house	noHit	None	1
319.291048929	0	7	face	Hit	None	0
321.258200756	0	7	face	noHit	None	1
323.224164554	0	7	face	noHit	None	1
325.191289481	0	7	face	noHit	None	1
327.157371442	0	7	face	noHit	None	1
329.133453011	0	7	face	noHit	None	1
331.107518456	0	7	face	noHit	None	1
333.073655815	0	7	face	noHit	None	1
335.040652653	0	7	face	noHit	None	1
337.006788091	0	7	face	noHit	None	1
338.973876193	0	7	face	noHit	None	1
340.939942142	0	7	face	noHit	None	1
342.907059064	0	7	face	noHit	None	1
344.87314935	0	7	face	noHit	None	1
346.840268193	0	7	face	noHit	None	1
348.806356238	0	7	face	noHit	None	1
350.77340207	0	7	face	noHit	None	1
352.739477626	0	7	face	Hit	1.49004522192	1
354.706574374	0	7	house	noHit	None	1
356.672868322	0	7	house	noHit	None	1
358.639715616	0	7	house	noHit	None	1
360.606860077	0	7	house	noHit	None	1
362.572914178	0	7	house	noHit	None	1
364.53899742	0	7	house	noHit	None	1
366.506147645	0	7	house	noHit	None	1
368.473187393	0	7	house	noHit	None	1
370.439188016	0	7	house	noHit	None	1
372.406404207	0	7	house	noHit	None	1
374.372454146	0	7	house	Hit	1.49006091285	1
376.338542511	0	7	house	noHit	None	1
378.305666477	0	7	house	noHit	None	1
380.27268381	0	7	house	noHit	None	1
382.239824428	0	7	house	Hit	1.4900753229	1
384.205079252	0	7	house	noHit	None	1
386.171973619	0	7	house	noHit	None	1
388.138062304	0	7	house	noHit	None	1
390.105110698	0	7	face	noHit	None	1
392.071184973	0	7	face	noHit	None	1
394.038291328	0	7	face	noHit	None	1
396.00437617	0	7	face	Hit	1.49004682303	1
397.971450502	0	7	face	noHit	None	1
399.938575109	0	7	face	noHit	None	1
401.90477203	0	7	face	noHit	None	1
403.87078194	0	7	face	Hit	1.49003785679	1
405.837815604	0	7	face	noHit	None	1
407.804901464	0	7	face	noHit	None	1
409.770997835	0	7	face	noHit	None	1
411.737120143	0	7	face	noHit	None	1
413.705143617	0	7	face	noHit	None	1
415.670261706	0	7	face	noHit	None	1
417.637488464	0	7	face	noHit	None	1
419.60445392	0	7	face	noHit	None	1
421.570486887	0	7	face	noHit	None	1
423.537659207	0	7	face	noHit	None	1
425.50367296	0	7	house	noHit	None	1
427.470756899	0	7	house	noHit	None	1
429.436884971	0	7	house	noHit	None	1
431.403930483	0	7	house	Hit	1.49003401411	1
433.370012124	0	7	house	noHit	None	1
435.337165231	0	7	house	Hit	None	0
437.303280174	0	7	house	noHit	None	1
439.270299108	0	7	house	noHit	None	1
441.237354226	0	7	house	noHit	None	1
443.203444833	0	7	house	noHit	None	1
445.169513024	0	7	house	noHit	None	1
447.13665108	0	7	house	noHit	None	1
449.102696535	0	7	house	noHit	None	1
451.06986085	0	7	house	noHit	None	1
453.035889974	0	7	house	noHit	None	1
455.002923638	0	7	house	noHit	None	1
456.969107429	0	7	house	noHit	None	1
458.93615134	0	7	house	noHit	None	1
460.902249952	0	7	face	noHit	None	1
462.86933197	0	7	face	noHit	None	1
464.83542802	0	7	face	noHit	None	1
466.802481538	0	7	face	noHit	None	1
468.768571183	0	7	face	noHit	None	1
470.735683942	0	7	face	noHit	None	1
472.701787037	0	7	face	noHit	None	1
474.668816218	0	7	face	noHit	None	1
476.635232812	0	7	face	noHit	None	1
478.601984999	0	7	face	noHit	None	1
480.568061516	0	7	face	noHit	None	1
482.535237359	0	7	face	Hit	1.49005226683	1
484.503295097	0	7	face	noHit	None	1
486.468397174	0	7	face	Hit	1.49005642973	1
488.435471826	0	7	face	noHit	None	1
490.401531692	0	7	face	noHit	None	1
492.367606287	0	7	face	noHit	None	1
494.334658844	0	7	face	noHit	None	1
496.301787294	0	7	house	noHit	None	1
498.26783499	0	7	house	noHit	None	1
500.23388717	0	7	house	noHit	None	1
502.201032592	0	7	house	noHit	None	1
504.16811557	0	7	house	noHit	None	1
506.134226991	0	7	house	noHit	None	1
508.100368193	0	7	house	noHit	None	1
510.06747839	0	7	house	noHit	None	1
512.033471648	0	7	house	noHit	None	1
514.001580622	0	7	house	Hit	1.49005418817	1
515.96665452	0	7	house	noHit	None	1
517.933737177	0	7	house	noHit	None	1
519.899786155	0	7	house	noHit	None	1
521.866926453	0	7	house	noHit	None	1
523.832977032	0	7	house	noHit	None	1
525.800108043	0	7	house	Hit	1.49004169946	1
527.767149713	0	7	house	noHit	None	1
529.733240639	0	7	house	noHit	None	1
531.699333487	0	7	face	noHit	None	1
533.666585543	0	7	face	Hit	1.49004842415	1
535.635490912	0	7	face	noHit	None	1
537.616578851	0	7	face	noHit	None	1
539.582696996	0	7	face	noHit	None	1
541.549796306	0	7	face	noHit	None	1
543.515847205	0	7	face	noHit	None	1
545.482919616	0	7	face	Hit	1.49003433433	1
547.449040643	0	7	face	noHit	None	1
549.416096723	0	7	face	noHit	None	1
551.382243368	0	7	face	noHit	None	1
553.349238605	0	7	face	noHit	None	1
555.315394217	0	7	face	noHit	None	1
557.28245574	0	7	face	noHit	None	1
559.248567802	0	7	face	noHit	None	1
561.215680561	0	7	face	noHit	None	1
563.181693033	0	7	face	noHit	None	1
565.14877409	0	7	face	noHit	None	1
