onset	duration	subject	task	trialHit	rt	acc
0.705697639489	0	3	house	noHit	None	1
2.67221136659	0	3	house	noHit	None	1
4.63827966038	0	3	house	noHit	None	1
6.60438958346	0	3	house	noHit	None	1
8.57147139011	0	3	house	noHit	None	1
10.5375998863	0	3	house	noHit	None	1
12.5047149963	0	3	house	Hit	1.4900608492	1
14.4708156329	0	3	house	noHit	None	1
16.4389199187	0	3	house	noHit	None	1
18.4049760439	0	3	house	noHit	None	1
20.3711259952	0	3	house	Hit	1.49011176501	1
22.3382744087	0	3	house	noHit	None	1
24.3042812192	0	3	house	noHit	1.49012841672	0
26.2713662281	0	3	house	noHit	None	1
28.2374713478	0	3	house	noHit	None	1
30.2045826152	0	3	house	noHit	None	1
32.1706752461	0	3	house	noHit	None	1
34.1377685809	0	3	house	noHit	None	1
36.1038628129	0	3	face	noHit	None	1
38.069937191	0	3	face	Hit	1.49003010758	1
40.0370865652	0	3	face	noHit	None	1
42.0041424336	0	3	face	noHit	None	1
43.9702975085	0	3	face	noHit	None	1
45.9364035888	0	3	face	noHit	None	1
47.9034828337	0	3	face	noHit	None	1
49.8706126741	0	3	face	noHit	None	1
51.8366306926	0	3	face	noHit	None	1
53.803732033	0	3	face	noHit	None	1
55.7698970348	0	3	face	noHit	None	1
57.7369541841	0	3	face	noHit	None	1
59.7030528993	0	3	face	Hit	1.49005924807	1
61.6701734532	0	3	face	noHit	None	1
63.6363093145	0	3	face	noHit	None	1
65.6033914414	0	3	face	noHit	None	1
67.5695346679	0	3	face	noHit	None	1
69.5365322553	0	3	face	noHit	None	1
71.5026562683	0	3	house	noHit	None	1
73.4687191183	0	3	house	noHit	None	1
75.4358329475	0	3	house	noHit	None	1
77.4019412694	0	3	house	noHit	None	1
79.3690474132	0	3	house	noHit	None	1
81.3352197802	0	3	house	noHit	None	1
83.3042760956	0	3	house	Hit	1.49005924807	1
85.2685940383	0	3	house	noHit	None	1
87.2354574514	0	3	house	noHit	None	1
89.2026433312	0	3	house	noHit	None	1
91.1686136361	0	3	house	noHit	None	1
93.1358405048	0	3	house	noHit	None	1
95.1018428322	0	3	house	noHit	None	1
97.0679476316	0	3	house	noHit	None	1
99.035027517	0	3	house	noHit	None	1
101.002164402	0	3	house	noHit	None	1
102.968235258	0	3	house	noHit	None	1
104.935325711	0	3	house	Hit	1.49004323681	1
106.90141546	0	3	face	noHit	None	1
108.867544596	0	3	face	noHit	None	1
110.834651701	0	3	face	noHit	None	1
112.801848148	0	3	face	noHit	None	1
114.768816275	0	3	face	Hit	1.49003875366	1
116.734939647	0	3	face	noHit	None	1
118.701026514	0	3	face	Hit	1.4900621301	1
120.668146107	0	3	face	noHit	None	1
122.634264676	0	3	face	noHit	None	1
124.601343281	0	3	face	noHit	None	1
126.56746217	0	3	face	noHit	None	1
128.534544617	0	3	face	noHit	None	1
130.500618035	0	3	face	noHit	None	1
132.46693002	0	3	face	noHit	None	1
134.433837624	0	3	face	noHit	None	1
136.400927757	0	3	face	noHit	None	1
138.369011868	0	3	face	noHit	None	1
140.334192818	0	3	face	noHit	None	1
142.301222108	0	3	house	noHit	None	1
144.267465565	0	3	house	Hit	1.49004643906	1
146.234399107	0	3	house	Hit	1.49002562442	1
148.200505828	0	3	house	noHit	None	1
150.16661415	0	3	house	noHit	None	1
152.133697878	0	3	house	noHit	None	1
154.099824773	0	3	house	noHit	None	1
156.066912664	0	3	house	noHit	None	1
158.034042504	0	3	house	noHit	None	1
160.000174523	0	3	house	noHit	None	1
161.96720029	0	3	house	noHit	None	1
163.933265382	0	3	house	noHit	None	1
165.900470795	0	3	house	noHit	None	1
167.866538448	0	3	house	noHit	None	1
169.83260322	0	3	house	noHit	None	1
171.799744268	0	3	house	noHit	None	1
173.765790466	0	3	house	noHit	None	1
175.732944964	0	3	house	noHit	None	1
177.699131421	0	3	face	noHit	None	1
179.666080975	0	3	face	noHit	None	1
181.633177192	0	3	face	noHit	None	1
183.599285513	0	3	face	noHit	None	1
185.566398382	0	3	face	noHit	None	1
187.532482687	0	3	face	noHit	None	1
189.4985782	0	3	face	noHit	None	1
191.466721233	0	3	face	noHit	None	1
193.431772171	0	3	face	noHit	None	1
195.398901691	0	3	face	noHit	None	1
197.366003032	0	3	face	noHit	None	1
199.332096303	0	3	face	noHit	None	1
201.298210709	0	3	face	noHit	None	1
203.265317494	0	3	face	noHit	None	1
205.232389373	0	3	face	noHit	None	1
207.19847592	0	3	face	Hit	1.49005284357	1
209.16456791	0	3	face	noHit	None	1
211.131694228	0	3	face	Hit	1.49005284357	1
213.097781416	0	3	house	noHit	None	1
215.064843368	0	3	house	Hit	1.49006245032	1
217.030992039	0	3	house	noHit	None	1
218.998102025	0	3	house	noHit	None	1
220.965168461	0	3	house	noHit	None	1
222.931305283	0	3	house	noHit	None	1
224.897405279	0	3	house	noHit	None	1
226.864467872	0	3	house	Hit	1.49003747276	1
228.831604117	0	3	house	noHit	None	1
230.797631422	0	3	house	noHit	None	1
232.764775032	0	3	house	noHit	None	1
234.730844927	0	3	house	noHit	None	1
236.697984374	0	3	house	noHit	None	1
238.664069	0	3	house	noHit	None	1
240.631136076	0	3	house	noHit	None	1
242.597235752	0	3	house	noHit	None	1
244.563379298	0	3	house	noHit	None	1
246.530455021	0	3	house	noHit	None	1
248.496776293	0	3	face	noHit	None	1
250.463666605	0	3	face	noHit	None	1
252.430772748	0	3	face	Hit	1.49004451771	1
254.396846806	0	3	face	noHit	None	1
256.363952309	0	3	face	noHit	None	1
258.330031811	0	3	face	noHit	None	1
260.297114258	0	3	face	noHit	None	1
262.263232827	0	3	face	noHit	None	1
264.230338971	0	3	face	noHit	None	1
266.198683746	0	3	face	noHit	None	1
268.163550235	0	3	face	noHit	None	1
270.129842046	0	3	face	noHit	None	1
272.096743566	0	3	face	noHit	None	1
274.062903764	0	3	face	noHit	None	1
276.029959312	0	3	face	noHit	None	1
277.996064432	0	3	face	noHit	None	1
279.963145278	0	3	face	noHit	None	1
281.930298495	0	3	face	Hit	1.49005380424	1
283.895287309	0	3	house	noHit	None	1
285.862440846	0	3	house	noHit	None	1
287.829494153	0	3	house	noHit	None	1
289.79560952	0	3	house	noHit	None	1
291.762750568	0	3	house	noHit	None	1
293.729788184	0	3	house	Hit	1.49002850645	1
295.695924686	0	3	house	noHit	None	1
297.662994964	0	3	house	noHit	None	1
299.62916509	0	3	house	noHit	None	1
301.595205524	0	3	house	noHit	None	1
303.562339847	0	3	house	noHit	None	1
305.528413905	0	3	house	noHit	None	1
307.495552392	0	3	house	noHit	None	1
309.461599551	0	3	house	noHit	None	1
311.428772301	0	3	house	noHit	None	1
313.395829771	0	3	house	noHit	None	1
315.361915357	0	3	house	noHit	None	1
317.337046345	0	3	house	Hit	1.49022896745	1
319.311112264	0	3	face	noHit	None	1
321.278188307	0	3	face	noHit	None	1
323.245334478	0	3	face	Hit	1.49003811321	1
325.212402515	0	3	face	noHit	None	1
327.178506354	0	3	face	noHit	None	1
329.144597064	0	3	face	noHit	None	1
331.111708972	0	3	face	noHit	None	1
333.078816396	0	3	face	noHit	None	1
335.044933044	0	3	face	noHit	None	1
337.010996855	0	3	face	noHit	None	1
338.978094673	0	3	face	Hit	1.49100871589	1
340.944248787	0	3	face	noHit	None	1
342.91131202	0	3	face	noHit	None	1
344.877411056	0	3	face	noHit	None	1
346.844528728	0	3	face	noHit	None	1
348.810587415	0	3	face	noHit	None	1
350.777650008	0	3	face	noHit	None	1
352.743790673	0	3	face	noHit	None	1
354.710894895	0	3	house	noHit	None	1
356.676963509	0	3	house	noHit	None	1
358.64413626	0	3	house	noHit	None	1
360.610204553	0	3	house	noHit	None	1
362.577273231	0	3	house	noHit	None	1
364.544408515	0	3	house	noHit	None	1
366.510515876	0	3	house	noHit	None	1
368.476594097	0	3	house	noHit	None	1
370.443779016	0	3	house	noHit	None	1
372.409764692	0	3	house	noHit	None	1
374.376859308	0	3	house	noHit	None	1
376.343934069	0	3	house	noHit	None	1
378.310008127	0	3	house	noHit	None	1
380.276211556	0	3	house	Hit	1.49004387726	1
382.243259739	0	3	house	noHit	None	1
384.209361977	0	3	house	Hit	1.4900329896	1
386.176441222	0	3	house	noHit	None	1
388.14255883	0	3	house	noHit	None	1
390.1097018	0	3	face	noHit	None	1
392.075781622	0	3	face	Hit	1.49003395028	1
394.042878799	0	3	face	noHit	1.49002082105	0
396.010042263	0	3	face	noHit	None	1
397.976054518	0	3	face	noHit	None	1
399.942146508	0	3	face	noHit	None	1
401.909290118	0	3	face	noHit	None	1
403.875339199	0	3	face	noHit	None	1
405.842424528	0	3	face	noHit	None	1
407.808550142	0	3	face	Hit	1.4900240233	1
409.775637713	0	3	face	noHit	None	1
411.741807518	0	3	face	noHit	None	1
413.708893487	0	3	face	noHit	None	1
415.674946731	0	3	face	noHit	None	1
417.641999076	0	3	face	noHit	None	1
419.608182651	0	3	face	noHit	None	1
421.575299042	0	3	face	noHit	None	1
423.54137214	0	3	face	noHit	None	1
425.508479564	0	3	house	noHit	None	1
427.47457956	0	3	house	noHit	None	1
429.441636389	0	3	house	noHit	None	1
431.407725178	0	3	house	noHit	None	1
433.374850215	0	3	house	noHit	None	1
435.340941565	0	3	house	noHit	None	1
437.308042265	0	3	house	noHit	None	1
439.274162435	0	3	house	noHit	None	1
441.241267938	0	3	house	noHit	None	1
443.207320221	0	3	house	noHit	None	1
445.174457426	0	3	house	noHit	None	1
447.142607184	0	3	house	Hit	1.49005284356	1
449.107643072	0	3	house	noHit	None	1
451.074718474	0	3	house	noHit	None	1
453.040867144	0	3	house	noHit	None	1
455.007005888	0	3	house	Hit	1.49005188289	1
456.974016925	0	3	house	noHit	None	1
458.94014446	0	3	house	noHit	None	1
460.907258609	0	3	face	Hit	None	0
462.874340736	0	3	face	noHit	None	1
464.840411272	0	3	face	noHit	None	1
466.807551039	0	3	face	noHit	None	1
468.773637266	0	3	face	noHit	None	1
470.739715807	0	3	face	noHit	None	1
472.707892143	0	3	face	noHit	None	1
474.672942441	0	3	face	noHit	None	1
476.640214141	0	3	face	noHit	None	1
478.606092541	0	3	face	Hit	1.49003619186	1
480.573280022	0	3	face	noHit	None	1
482.539329743	0	3	face	noHit	None	1
484.506420836	0	3	face	noHit	None	1
486.473581098	0	3	face	noHit	None	1
488.439592392	0	3	face	noHit	None	1
490.405733056	0	3	face	noHit	None	1
492.372841762	0	3	face	noHit	None	1
494.338927988	0	3	face	noHit	None	1
496.306035733	0	3	house	noHit	None	1
498.273086158	0	3	house	Hit	1.49003363005	1
500.239235148	0	3	house	noHit	None	1
502.205247083	0	3	house	noHit	None	1
504.172419193	0	3	house	noHit	None	1
506.138540644	0	3	house	noHit	None	1
508.105574737	0	3	house	noHit	None	1
510.071705155	0	3	house	Hit	1.49010760208	1
512.038810978	0	3	house	noHit	None	1
514.004898806	0	3	house	noHit	None	1
515.973974655	0	3	house	noHit	None	1
517.939097003	0	3	house	noHit	None	1
519.905202763	0	3	house	noHit	None	1
521.871311406	0	3	house	noHit	None	1
523.838368875	0	3	house	noHit	None	1
525.804433967	0	3	house	noHit	None	1
527.771604796	0	3	house	noHit	None	1
529.738707417	0	3	house	noHit	None	1
531.704797166	0	3	face	noHit	None	1
533.671899147	0	3	face	noHit	None	1
535.639130499	0	3	face	Hit	1.49005380424	1
537.606142817	0	3	face	noHit	None	1
539.572200543	0	3	face	noHit	None	1
541.538324236	0	3	face	noHit	None	1
543.505400599	0	3	face	noHit	None	1
545.471516286	0	3	face	noHit	None	1
547.438600974	0	3	face	noHit	None	1
549.404649734	0	3	face	noHit	None	1
551.370782073	0	3	face	noHit	None	1
553.337860998	0	3	face	noHit	None	1
555.303978286	0	3	face	noHit	None	1
557.271049205	0	3	face	noHit	None	1
559.237169696	0	3	face	noHit	None	1
561.204265272	0	3	face	noHit	None	1
563.170377437	0	3	face	Hit	1.49006020875	1
565.137491906	0	3	face	noHit	None	1
