onset	duration	subject	gender	effort	task	target	jitter	rt	acc
4.41171738805	0	12	male	HighEff	face	present	1.12569860714	0.309059270939	0
11.0278233208	0	12	male	HighEff	face	absent	5.31214211398	0.422868875872	1
13.5605809764	0	12	male	HighEff	face	absent	1.1236266291	0.519949007497	1
19.910343306	0	12	male	HighEff	face	present	4.83203588166	0.241907614035	0
25.6768703976	0	12	male	HighEff	face	present	4.54041853017	0.514076415743	1
33.460021929	0	12	male	HighEff	face	absent	6.27763137543	0.300900598562	1
36.7930983357	0	12	male	HighEff	face	absent	2.05349358692	0.68720211143	1
39.7096888958	0	12	male	HighEff	face	absent	1.22848205846	0.552251624497	1
44.392904536	0	12	male	HighEff	face	present	3.13548970069	0.249542399607	0
48.8261153729	0	12	male	HighEff	face	present	3.20705607284	0.363618110856	1
53.6592282853	0	12	male	HighEff	face	present	3.47913203869	0.393313462354	1
58.1924534682	0	12	male	HighEff	face	absent	3.14350962026	0.278560476903	1
62.9089666621	0	12	male	HighEff	face	present	3.45130284398	0.42819772692	1
67.1254183729	0	12	male	HighEff	face	present	2.8011948594	0.229891520848	0
71.7424186919	0	12	male	HighEff	face	absent	3.40145506974	0.230156026043	0
79.7923157078	0	12	male	HighEff	face	absent	6.82430129519	0.276595581162	1
84.2749560332	0	12	male	HighEff	face	present	3.21232733621	0.239687819823	1
87.0581146095	0	12	male	HighEff	face	absent	1.5546782026	0.344041524114	0
99.308313789	0	12	male	HighEff	house	present	2.82540846167	0.221110012386	1
103.274242894	0	12	male	HighEff	house	present	2.74397735532	0.184002751366	0
105.591199854	0	12	male	HighEff	house	absent	1.14843169066	0.227466783143	1
109.091137411	0	12	male	HighEff	house	present	2.28070263709	0.209482030938	1
115.223917098	0	12	male	HighEff	house	absent	4.92955033614	0.0986124044612	1
121.556927538	0	12	male	HighEff	house	present	5.2478151199	0.268055521754	1
123.923555757	0	12	male	HighEff	house	present	1.12569860714	0.264839189807	1
129.323291316	0	12	male	HighEff	house	absent	4.15603358255	0.16615249333	1
132.723199155	0	12	male	HighEff	house	absent	2.25482466282	0.113876211568	1
138.672978393	0	12	male	HighEff	house	absent	4.85180366797	0.217061097498	1
142.606236943	0	12	male	HighEff	house	present	2.73725383534	0.0673508363616	0
145.039478842	0	12	male	HighEff	house	absent	1.38905381006	0.288448039779	0
147.722722982	0	12	male	HighEff	house	present	1.40642072577	0.170479683055	1
150.555904102	0	12	male	HighEff	house	present	1.66856725589	0.235780764259	1
156.205719717	0	12	male	HighEff	house	present	4.41371408498	0.0130068668886	1
159.005633384	0	12	male	HighEff	house	absent	1.80277115312	0.313700280388	1
166.188711969	0	12	male	HighEff	house	absent	5.88455927999	0.323904224782	0
172.338558645	0	12	male	HighEff	house	absent	4.83203588166	0.223019829564	0
183.604851333	0	12	male	LowEff	house	absent	1.96442282644	0.336269362357	0
191.687852807	0	12	male	LowEff	house	absent	6.75295465995	0.466895541582	1
196.837662017	0	12	male	LowEff	house	present	3.70743833653	0.4799411556	1
199.938294396	0	12	male	LowEff	house	absent	1.62736500123	0.242300529138	1
204.121356009	0	12	male	LowEff	house	present	2.94263358763	0.224181923215	1
207.472615066	0	12	male	LowEff	house	absent	2.13507314744	0.364076351698	1
210.053891172	0	12	male	LowEff	house	present	1.23149327997	0.310922975831	1
213.437195387	0	12	male	LowEff	house	present	2.08868983003	0.539120830841	1
217.953649787	0	12	male	LowEff	house	present	2.98468485739	0.284141344404	1
225.103401998	0	12	male	LowEff	house	absent	5.88455927999	0.400752911159	1
229.886656642	0	12	male	LowEff	house	present	3.40171070026	0.209030835029	1
236.502995057	0	12	male	LowEff	house	present	5.41821618123	0.0104409103078	0
238.619684758	0	12	male	LowEff	house	absent	1.1236266291	0.436366006023	1
245.502779546	0	12	male	LowEff	house	absent	5.45280226417	0.519413592621	1
251.202566789	0	12	male	LowEff	house	present	4.17723126214	0.276861047031	1
254.952355121	0	12	male	LowEff	house	absent	2.49069832723	0.214022810211	1
258.036062369	0	12	male	LowEff	house	absent	1.88331581415	0.244829019486	1
262.668756557	0	12	male	LowEff	house	present	3.40171070026	0.445261834526	1
273.61838721	0	12	male	LowEff	face	present	1.43882995013	0.260721426715	1
279.551720373	0	12	male	LowEff	face	present	4.68812727264	0.419852043607	1
284.801683867	0	12	male	LowEff	face	absent	3.83406058685	0.28984677912	1
293.086118857	0	12	male	LowEff	face	present	6.99477971779	0.429657949309	1
296.085342954	0	12	male	LowEff	face	present	1.58955331807	0.281082562768	1
299.450926921	0	12	male	LowEff	face	absent	2.09431487246	0.234956186924	1
301.9174193	0	12	male	LowEff	face	absent	1.25594740849	0.437003572421	0
309.933945431	0	12	male	LowEff	face	absent	6.57698117369	0.251963935069	1
313.050476622	0	12	male	LowEff	face	absent	1.88721716383	0.29563675303	1
318.653139542	0	12	male	LowEff	face	absent	4.31089720702	0.222151061287	1
323.150035609	0	12	male	LowEff	face	absent	3.28750548499	0.205454571073	1
326.816565647	0	12	male	LowEff	face	absent	2.47318733813	0.376820634736	1
334.999719484	0	12	male	LowEff	face	absent	6.82514837105	0.247353026694	1
337.482873449	0	12	male	LowEff	face	present	1.25594740849	0.251888041931	1
340.649474576	0	12	male	LowEff	face	present	1.93857357056	0.326673843959	1
343.166019921	0	12	male	LowEff	face	present	1.19786684901	0.283757395579	1
350.049239275	0	12	male	LowEff	face	present	5.62169728165	0.457903005368	1
358.048847961	0	12	male	LowEff	face	present	6.55619140253	0.557232391831	1
382.214719938	0	12	male	LowEff	face	absent	4.52968257224	0.263223018229	1
387.381172162	0	12	male	LowEff	face	present	3.91872472459	0.498310497078	1
390.114547722	0	12	male	LowEff	face	absent	1.25594740849	0.333273344665	1
396.281060467	0	12	male	LowEff	face	absent	4.85503268434	0.276433227488	1
399.480759649	0	12	male	LowEff	face	present	1.93818202064	0.493278173646	1
403.697270281	0	12	male	LowEff	face	absent	2.73725383534	0.256273832687	1
406.147240372	0	12	male	LowEff	face	present	1.2068158269	0.356059858871	1
409.23111798	0	12	male	LowEff	face	present	1.72590357019	0.228492781505	1
413.130340219	0	12	male	LowEff	face	absent	2.68681283472	0.228953904365	1
415.614133352	0	12	male	LowEff	face	absent	1.25951227876	0.370032521971	1
422.580697141	0	12	male	LowEff	face	absent	5.59203269891	0.315160182554	1
427.246538697	0	12	male	LowEff	face	present	3.37310121079	0.25042685887	1
431.696370451	0	12	male	LowEff	face	present	3.21232733621	0.320037517468	1
436.662824083	0	12	male	LowEff	face	present	3.65330087731	0.349605419731	1
442.212629194	0	12	male	LowEff	face	absent	4.22029262442	0.234829057913	1
445.079275666	0	12	male	LowEff	face	absent	1.64986867731	0.340079069761	1
451.329145975	0	12	male	LowEff	face	present	4.92250997964	0.378521985954	1
454.297356677	0	12	male	LowEff	face	present	1.59610500292	0.284798764703	1
468.761767599	0	12	male	LowEff	house	present	5.11726375209	0.24296723594	1
472.194947695	0	12	male	LowEff	house	absent	2.20829207345	0.241613968436	1
474.628257481	0	12	male	LowEff	house	present	1.2003453545	0.254448874924	1
477.211575657	0	12	male	LowEff	house	present	1.33830742669	0.339490497667	1
479.628534795	0	12	male	LowEff	house	absent	1.09234824173	0.258159312824	1
487.694592566	0	12	male	LowEff	house	present	6.82430129519	0.32721502287	1
492.110926947	0	12	male	LowEff	house	absent	3.10095974299	0.245567776735	1
495.644186714	0	12	male	LowEff	house	present	2.30586275711	0.285849100105	1
499.960667821	0	12	male	LowEff	house	absent	3.02681816778	0.254148184393	1
505.160747429	0	12	male	LowEff	house	absent	3.95876636504	0.253975583545	1
512.026919328	0	12	male	LowEff	house	present	5.62169728165	0.318118413789	1
516.826749737	0	12	male	LowEff	house	absent	3.50693636238	0.235452214222	1
523.243193634	0	12	male	LowEff	house	present	5.20268402238	0.212800834633	1
529.72653461	0	12	male	LowEff	house	absent	5.2853771358	0.22748183368	1
533.876297709	0	12	male	LowEff	house	present	2.94094108257	0.275444375134	1
536.176281185	0	12	male	LowEff	house	absent	1.03548759163	0.217844045687	1
538.459862778	0	12	male	LowEff	house	present	1.08999493245	0.211532426544	1
541.809298799	0	12	male	LowEff	house	absent	2.15134212886	0.253576263957	1
553.258892306	0	12	male	HighEff	face	absent	2.14395649876	0.200924359199	1
555.642087324	0	12	male	HighEff	face	present	1.19786684901	0.344763629703	0
559.644106658	0	12	male	HighEff	face	present	2.66077650768	0.360405941825	1
562.875181087	0	12	male	HighEff	face	absent	1.88331581415	0.189897118366	1
565.575091936	0	12	male	HighEff	face	present	1.51253419384	0.238154906539	1
569.091697483	0	12	male	HighEff	face	absent	2.28070263709	0.241114098447	1
575.60808912	0	12	male	HighEff	face	absent	5.2853771358	0.270757573623	0
579.54156126	0	12	male	HighEff	face	present	2.66077650768	0.187279925914	0
585.325423048	0	12	male	HighEff	face	absent	4.5986596622	0.227056896157	0
590.39098191	0	12	male	HighEff	face	absent	3.84322405242	0.34619855438	0
598.723968013	0	12	male	HighEff	face	present	6.99642903038	0.0926722453996	0
601.423983256	0	12	male	HighEff	face	present	1.62221420857	0.253826038839	1
607.923856447	0	12	male	HighEff	face	absent	5.2478151199	0.259372642349	1
610.790209593	0	12	male	HighEff	face	present	1.62221420857	0.237582986104	0
615.523400384	0	12	male	HighEff	face	present	3.50693636238	0.258215031837	0
619.440008877	0	12	male	HighEff	face	absent	2.66242028546	0.254839228234	1
624.89038277	0	12	male	HighEff	face	absent	4.19322378835	0.226078611201	1
627.706376497	0	12	male	HighEff	face	present	1.59610500292	0.299331820167	1
639.122580546	0	12	male	HighEff	house	absent	2.04512081584	0.248720384065	0
643.022489987	0	12	male	HighEff	house	absent	2.66242028546	0.284166001667	1
648.122584709	0	12	male	HighEff	house	absent	3.83406058685	0.269002104513	1
653.305442659	0	12	male	HighEff	house	absent	3.91872472459	0.317161583854	1
659.97190705	0	12	male	HighEff	house	present	5.36392521404	0.296291291311	0
666.171672838	0	12	male	HighEff	house	present	4.91650247885	0.265881199381	1
669.204946695	0	12	male	HighEff	house	present	1.78974263946	0.268568520935	1
671.888203965	0	12	male	HighEff	house	present	1.43882995013	0.29254434785	0
675.288497995	0	12	male	HighEff	house	present	2.1138178858	0.278732757528	1
679.354644148	0	12	male	HighEff	house	absent	2.8011948594	0.257285741185	1
681.838273966	0	12	male	HighEff	house	absent	1.23149327997	0.356391931375	1
685.804331481	0	12	male	HighEff	house	present	2.60937354115	0.232734791592	0
691.370835004	0	12	male	HighEff	house	present	4.35401328546	0.238354085996	1
696.571299841	0	12	male	HighEff	house	absent	3.95876636504	0.201343852912	1
700.503882398	0	12	male	HighEff	house	absent	2.75521807812	0.269017155051	0
703.837062878	0	12	male	HighEff	house	present	2.06680833712	0.249674011756	1
708.786881823	0	12	male	HighEff	house	present	3.71272805271	0.248949664598	1
711.054274481	0	12	male	HighEff	house	absent	1.02567097346	0.235276090908	0
732.019439531	0	12	male	HighEff	face	present	1.64986867731	0.365770017535	1
737.169257707	0	12	male	HighEff	face	present	3.80456580248	0.232696364687	0
739.585911672	0	12	male	HighEff	face	absent	1.2003453545	0.216402716526	1
742.169115528	0	12	male	HighEff	face	present	1.38905381006	0.20221422231	1
745.335630195	0	12	male	HighEff	face	present	1.98608868625	0.245150204367	1
748.685520614	0	12	male	HighEff	face	present	2.12190475176	0.234017929994	1
755.185308626	0	12	male	HighEff	face	absent	5.2853771358	0.199893557473	1
760.718442225	0	12	male	HighEff	face	absent	4.35401328546	0.37500080056	1
767.452080689	0	12	male	HighEff	face	absent	5.36392521404	0.25268764178	0
771.901460607	0	12	male	HighEff	face	present	3.20102079308	0.319029451661	1
775.801308884	0	12	male	HighEff	face	absent	2.58447000545	0.187449644744	0
778.634492246	0	12	male	HighEff	face	present	1.64986867731	0.207727842727	1
783.53433508	0	12	male	HighEff	face	absent	3.70509141573	0.214476247689	0
789.484188289	0	12	male	HighEff	face	absent	4.74605128406	0.260506236046	0
793.417497755	0	12	male	HighEff	face	present	2.68396085725	0.252969759307	1
797.733849492	0	12	male	HighEff	face	present	3.0644804932	0.158927914968	1
800.400427563	0	12	male	HighEff	face	absent	1.51819835257	0.351264501352	1
805.433627769	0	12	male	HighEff	face	absent	3.70509141573	0.19998994496	1
816.549941527	0	12	male	LowEff	house	absent	1.85354724495	0.241985108293	1
820.084091518	0	12	male	LowEff	house	present	2.30586275711	0.358041086047	1
824.533014155	0	12	male	LowEff	house	absent	3.10136910273	0.191969289217	1
829.366575061	0	12	male	LowEff	house	absent	3.65473648571	0.196658012074	1
831.616038365	0	12	male	LowEff	house	present	1.07228077998	0.206346715717	1
834.749324327	0	12	male	LowEff	house	present	1.93818202064	0.256222596814	0
838.799120792	0	12	male	LowEff	house	present	2.8011948594	0.213654552372	1
841.915751252	0	12	male	LowEff	house	absent	1.92521729356	0.225358106733	1
844.616232742	0	12	male	LowEff	house	present	1.47599143176	0.232369735994	1
847.532190539	0	12	male	LowEff	house	present	1.69758263488	0.241860541077	1
850.916194443	0	12	male	LowEff	house	absent	2.14395649876	0.237912176589	1
853.816010058	0	12	male	LowEff	house	absent	1.6598892813	0.230084616045	1
858.149122009	0	12	male	LowEff	house	present	3.10896321748	0.240189290934	1
861.181699058	0	12	male	LowEff	house	present	1.80277115312	0.3181847002	1
867.048654226	0	12	male	LowEff	house	absent	4.56225691612	0.457991707474	1
871.481382165	0	12	male	LowEff	house	present	2.98468485739	0.233697705786	1
875.165203029	0	12	male	LowEff	house	absent	2.45760532372	0.364135593178	1
880.864465104	0	12	male	LowEff	house	absent	4.35502036983	0.399804086829	1
893.530584934	0	12	male	LowEff	face	absent	3.20102079308	0.260359893583	1
897.080660635	0	12	male	LowEff	face	absent	2.2969542914	0.23347514996	1
900.24724415	0	12	male	LowEff	face	present	1.95799611287	0.37219819829	1
903.347642445	0	12	male	LowEff	face	absent	1.72590190106	0.206580479388	1
907.730152504	0	12	male	LowEff	face	absent	3.1872221132	0.302827067399	1
914.446856551	0	12	male	LowEff	face	absent	5.41821618123	0.180674981395	1
917.413312745	0	12	male	LowEff	face	present	1.80277115312	0.412231988349	1
921.879664866	0	12	male	LowEff	face	present	3.0644804932	0.279238071328	1
924.796186578	0	12	male	LowEff	face	present	1.64986867731	0.26475336972	1
928.512732755	0	12	male	LowEff	face	absent	2.47318733813	0.268131735116	1
934.295869236	0	12	male	LowEff	face	absent	4.54041853017	0.230700407197	1
936.713001615	0	12	male	LowEff	face	present	1.20014382498	0.219402576908	1
940.99571476	0	12	male	LowEff	face	present	3.0644804932	0.224595973117	1
944.34553537	0	12	male	LowEff	face	absent	2.13507314744	0.322531103377	1
947.662130797	0	12	male	LowEff	face	absent	2.00382360411	0.209173334802	1
953.695200031	0	12	male	LowEff	face	present	4.83203588166	0.331314853408	1
960.745447372	0	12	male	LowEff	face	present	5.72701762216	0.292343567272	1
964.761505336	0	12	male	LowEff	face	present	2.73520897337	0.261268049437	1
975.161178771	0	12	male	HighEff	house	present	1.07228077998	0.235245669608	1
980.594282012	0	12	male	HighEff	house	absent	4.19521736931	0.205664638153	1
987.694050747	0	12	male	HighEff	house	present	5.90690130075	0.350834760466	1
991.243955768	0	12	male	HighEff	house	absent	2.21648504419	0.261859823774	1
993.67930186	0	12	male	HighEff	house	present	1.17792775246	0.252690203572	1
1001.92696711	0	12	male	HighEff	house	absent	6.99642903038	0.537631147824	0
1007.32686502	0	12	male	HighEff	house	absent	3.86614979165	0.171446119715	0
1011.61055837	0	12	male	HighEff	house	present	3.10896321748	0.245947562646	1
1015.97642766	0	12	male	HighEff	house	present	3.13548970069	0.381979766954	0
1019.960289	0	12	male	HighEff	house	absent	2.60937354115	0.249637506196	0
1026.39273482	0	12	male	HighEff	house	absent	5.19504214427	0.269771603286	1
1032.25967942	0	12	male	HighEff	house	present	4.5986596622	0.251589272745	1
1035.62578759	0	12	male	HighEff	house	absent	2.12190475176	0.195502643131	1
1040.64240371	0	12	male	HighEff	house	absent	3.83406058685	0.203181299419	0
1044.80877939	0	12	male	HighEff	house	absent	2.9654953726	0.199924619221	0
1049.14201912	0	12	male	HighEff	house	present	3.14350962026	0.230072447524	1
1052.42539032	0	12	male	HighEff	house	present	2.07024312543	0.197840600075	1
1059.34213875	0	12	male	HighEff	house	present	5.72701762216	0.241189030912	1
1080.32425903	0	12	male	HighEff	house	absent	1.66856725589	0.231397535298	0
1083.60749574	0	12	male	HighEff	house	present	2.07024312543	0.23726916638	1
1086.80739218	0	12	male	HighEff	house	absent	1.96799693576	0.181901440113	0
1089.94068935	0	12	male	HighEff	house	absent	1.96442282644	0.158624022195	1
1096.6906458	0	12	male	HighEff	house	absent	5.60216459925	0.23044422783	1
1099.62358957	0	12	male	HighEff	house	present	1.72590357019	0.272970322901	1
1104.5400703	0	12	male	HighEff	house	present	3.65473648571	0.211520258024	1
1108.18999158	0	12	male	HighEff	house	present	2.45760532372	0.27291620501	1
1113.13978203	0	12	male	HighEff	house	absent	3.68446012437	0.02925952635	1
1115.53975167	0	12	male	HighEff	house	absent	1.39107046142	0.210249608365	0
1119.22297788	0	12	male	HighEff	house	present	2.49069832723	0.258760053439	0
1124.95612064	0	12	male	HighEff	house	present	4.48683770422	0.259447574814	1
1127.70642965	0	12	male	HighEff	house	absent	1.49498520481	0.263500652617	1
1130.18920255	0	12	male	HighEff	house	absent	1.23207838243	0.339420368566	1
1135.32240686	0	12	male	HighEff	house	present	3.80456580248	0.171025345106	0
1141.17223419	0	12	male	HighEff	house	present	4.68812727264	0.325340110132	0
1143.85544375	0	12	male	HighEff	house	present	1.36353108802	0.302367225437	1
1146.78871607	0	12	male	HighEff	house	absent	1.63571354054	0.191713430075	1
1159.18825757	0	12	male	LowEff	face	absent	3.16852579726	0.26912282904	1
1161.85478216	0	12	male	LowEff	face	present	1.40105927695	0.217290057807	1
1164.23811232	0	12	male	LowEff	face	present	1.17792775246	0.254903913525	1
1167.05485793	0	12	male	LowEff	face	absent	1.56575767799	0.245194715531	1
1170.27124495	0	12	male	LowEff	face	present	1.98608868625	0.252057440537	1
1174.23770979	0	12	male	LowEff	face	absent	2.73725383534	0.2204474685	1
1176.75427147	0	12	male	LowEff	face	absent	1.3036590362	0.235658758837	1
1180.72087497	0	12	male	LowEff	face	present	2.73725383534	0.226162509944	1
1183.17072754	0	12	male	LowEff	face	present	1.23149327997	0.227986827257	1
1189.83728607	0	12	male	LowEff	face	absent	5.45280226417	0.260909718548	1
1194.23703957	0	12	male	LowEff	face	present	3.14350962026	0.282974127165	1
1199.18685115	0	12	male	LowEff	face	present	3.68446012437	0.14741169177	1
1203.07009035	0	12	male	LowEff	face	absent	2.74397735532	0.252217232418	1
1207.11998897	0	12	male	LowEff	face	absent	2.81167452641	0.243726167313	1
1212.22028511	0	12	male	LowEff	face	absent	3.8692724053	0.294840355423	1
1214.81965005	0	12	male	LowEff	face	present	1.32490462038	0.442033334059	1
1220.50285096	0	12	male	LowEff	face	absent	4.24517189134	0.251434284228	1
1224.03604764	0	12	male	LowEff	face	present	2.30586275711	0.229506931573	1
1237.75238055	0	12	male	LowEff	house	absent	4.41371408498	0.206352799976	1
1240.80214531	0	12	male	LowEff	house	present	1.85354724495	0.217867742279	1
1244.46863148	0	12	male	LowEff	house	absent	2.47318733813	0.197159803408	1
1248.75182656	0	12	male	LowEff	house	absent	3.10896321748	0.189141709459	1
1252.75175387	0	12	male	LowEff	house	absent	2.82540846167	0.219831036899	1
1255.60171666	0	12	male	LowEff	house	present	1.63571354054	0.254233364032	1
1258.91819424	0	12	male	LowEff	house	absent	2.07024312543	0.21999403102	1
1266.71836057	0	12	male	LowEff	house	absent	6.57698117369	0.235387208708	1
1272.13446343	0	12	male	LowEff	house	present	4.17723126214	0.331443583539	1
1275.00097604	0	12	male	LowEff	house	present	1.5455091635	0.189616922184	1
1281.43409658	0	12	male	LowEff	house	present	5.2478151199	0.356205881109	1
1288.66767964	0	12	male	LowEff	house	absent	5.88455927999	0.246629319985	1
1291.78376156	0	12	male	LowEff	house	absent	1.88721716383	0.265257082399	1
1298.2335235	0	12	male	LowEff	house	present	5.20268402238	0.0834763668136	1
1302.70004502	0	12	male	LowEff	house	present	3.40171070026	0.247745621575	1
1306.04996522	0	12	male	LowEff	house	present	2.11981368864	0.22225321281	1
1310.1497996	0	12	male	LowEff	house	present	2.88459860939	0.203480709053	1
1315.5334154	0	12	male	LowEff	house	absent	4.17723126214	0.231808382958	1
1326.63256193	0	12	male	HighEff	face	absent	1.82960820108	0.229608762871	1
1332.03233464	0	12	male	HighEff	face	present	4.17723126214	0.474402877919	0
1334.86568516	0	12	male	HighEff	face	present	1.36197885724	0.294333440502	1
1338.44947022	0	12	male	HighEff	face	absent	2.2969542914	0.257638948486	1
1343.03194525	0	12	male	HighEff	face	present	3.33365658887	0.244593014245	1
1347.36514366	0	12	male	HighEff	face	present	3.10095974299	0.220768333156	1
1349.8317779	0	12	male	HighEff	face	absent	1.25594740849	0.204769291267	1
1354.73206841	0	12	male	HighEff	face	absent	3.70743833653	0.210515394459	1
1357.2981566	0	12	male	HighEff	face	present	1.36353108802	0.241268766739	1
1363.09801455	0	12	male	HighEff	face	present	4.56225691612	0.25403994861	0
1367.29800417	0	12	male	HighEff	face	absent	2.95172846786	0.162930077123	1
1372.14768548	0	12	male	HighEff	face	present	3.70743833653	0.224617428139	1
1375.13091054	0	12	male	HighEff	face	absent	1.76233571515	0.249207765309	0
1377.74742155	0	12	male	HighEff	face	present	1.38905381006	0.250112718922	0
1382.08074133	0	12	male	HighEff	face	absent	3.10136910273	0.218077489135	1
1385.03119496	0	12	male	HighEff	face	present	1.72590190106	0.242811606975	1
1387.76381639	0	12	male	HighEff	face	absent	1.49498520481	0.231628737177	0
1391.16434931	0	12	male	HighEff	face	absent	2.1756730726	0.194741149963	1
1411.93029295	0	12	male	LowEff	face	absent	1.47599143176	0.247921424664	1
1418.76281089	0	12	male	LowEff	face	present	5.60216459925	0.243700549377	1
1422.06264674	0	12	male	LowEff	face	absent	2.07024312543	0.116462662498	1
1425.62917813	0	12	male	LowEff	face	present	2.47318733813	0.19746433663	1
1429.92965507	0	12	male	LowEff	face	absent	3.10896321748	0.164735180984	1
1432.89558866	0	12	male	LowEff	face	absent	1.82322266214	0.242218551741	1
1435.31263618	0	12	male	LowEff	face	absent	1.1814524664	0.20890690826	1
1438.12895589	0	12	male	LowEff	face	present	1.61440594792	0.20926299758	1
1441.56192336	0	12	male	LowEff	face	absent	2.22978947926	0.0580374354904	1
1444.46212932	0	12	male	LowEff	face	present	1.85354724495	0.150559495736	1
1448.39505004	0	12	male	LowEff	face	absent	2.8011948594	0.226254734514	1
1454.64529725	0	12	male	LowEff	face	present	5.02645853503	0.249508135616	1
1457.39477977	0	12	male	LowEff	face	present	1.51819835257	0.124561452947	1
1463.2611643	0	12	male	LowEff	face	present	4.74605128406	0.243409465571	1
1466.19444782	0	12	male	LowEff	face	present	1.70677331078	0.203893478058	1
1470.12761511	0	12	male	LowEff	face	present	2.73520897337	0.239406022521	1
1477.94401136	0	12	male	LowEff	face	absent	6.57698117369	0.222535010113	1
1483.07721758	0	12	male	LowEff	face	absent	3.91872472459	0.216580120737	1
1498.25997691	0	12	male	HighEff	face	absent	5.90690130075	0.342344656035	1
1505.19372828	0	12	male	HighEff	face	present	5.59203269891	0.2182026968	1
1511.32637604	0	12	male	HighEff	face	present	4.91650247885	0.198235436523	1
1515.34338859	0	12	male	HighEff	face	present	2.82540846167	0.253185590423	0
1521.17609802	0	12	male	HighEff	face	absent	4.58906779381	0.217763349186	1
1523.37581385	0	12	male	HighEff	face	absent	1.00740682617	0.0274768381823	1
1528.92577747	0	12	male	HighEff	face	present	4.54041853017	0.224955584902	1
1534.00881481	0	12	male	HighEff	face	present	3.86614979165	0.220646647957	1
1536.95889442	0	12	male	HighEff	face	absent	1.73507043056	None	0
1543.42562216	0	12	male	HighEff	face	absent	4.4863825582	0.274915044518	1
1546.82508905	0	12	male	HighEff	face	present	2.13507314744	0.2816253428	1
1549.15833582	0	12	male	HighEff	face	present	1.06695022548	0.198353599256	1
1551.85823226	0	12	male	HighEff	face	absent	1.51253419384	0.202464317417	0
1557.62511544	0	12	male	HighEff	face	present	4.56225691612	0.3295183956	1
1561.60790883	0	12	male	HighEff	face	absent	2.66242028546	0.213750939858	1
1564.95773169	0	12	male	HighEff	face	present	2.15134212886	0.212736789791	1
1568.12427133	0	12	male	HighEff	face	absent	1.96442282644	0.170339745076	1
1571.40778375	0	12	male	HighEff	face	absent	2.1138178858	0.087559225467	0
1583.67442645	0	12	male	HighEff	house	present	3.10896321748	0.212333307289	1
1590.77349805	0	12	male	HighEff	house	present	5.90690130075	0.204844223731	0
1593.3572671	0	12	male	HighEff	house	present	1.37612485143	0.18883045153	0
1597.90657875	0	12	male	HighEff	house	present	3.37310121079	0.300098116698	1
1604.80657337	0	12	male	HighEff	house	absent	5.62169728165	0.131315942171	1
1608.80621984	0	12	male	HighEff	house	present	2.88459860939	0.146498412329	0
1611.08947289	0	12	male	HighEff	house	absent	1.14843169066	0.219367352245	1
1615.12272849	0	12	male	HighEff	house	absent	2.81167452641	0.201069100541	1
1620.83919621	0	12	male	HighEff	house	absent	4.54041853017	0.158648039011	0
1623.37291774	0	12	male	HighEff	house	absent	1.37612485143	0.230547980475	0
1626.23897084	0	12	male	HighEff	house	absent	1.65156229356	0.197912650521	1
1633.97203354	0	12	male	HighEff	house	absent	6.55619140253	0.211076427271	0
1636.24050855	0	12	male	HighEff	house	present	1.06695022548	0.243453016064	1
1640.42206703	0	12	male	HighEff	house	absent	2.95172846786	0.199289934841	0
1648.35486254	0	12	male	HighEff	house	present	6.75295465995	0.333796591021	1
1654.40467374	0	12	male	HighEff	house	absent	4.72908926607	0.206601293962	1
1658.67118193	0	12	male	HighEff	house	present	3.06112792452	0.133464326383	0
1660.85444401	0	12	male	HighEff	house	present	1.07228077998	0.143936298439	1
1671.58739911	0	12	male	LowEff	house	present	1.51253419384	0.202067559623	1
1677.37053271	0	12	male	LowEff	house	present	4.58906779381	0.426738465204	1
1684.80363179	0	12	male	LowEff	house	present	6.0173854614	0.303250403803	1
1687.48685704	0	12	male	LowEff	house	absent	1.37612485143	0.279149369222	1
1693.58683456	0	12	male	LowEff	house	absent	4.83203588166	0.163141745325	1
1699.85376449	0	12	male	LowEff	house	present	5.11726375209	0.180427768306	1
1703.83677948	0	12	male	LowEff	house	absent	2.81908080944	0.236060960442	1
1710.10352785	0	12	male	LowEff	house	present	5.02645853503	0.228162310123	1
1715.38590956	0	12	male	LowEff	house	absent	4.06800373563	0.170614497447	1
1718.35252106	0	12	male	LowEff	house	absent	1.80277115312	0.268145504756	1
1723.78567682	0	12	male	LowEff	house	absent	4.17723126214	0.240271268332	1
1726.11936325	0	12	male	LowEff	house	absent	1.09234824173	0.151968802476	1
1728.46951754	0	12	male	LowEff	house	present	1.20014382498	0.174739625697	1
1734.48538785	0	12	male	LowEff	house	present	4.85180366797	0.241809945652	1
1741.90172383	0	12	male	LowEff	house	present	6.18296452381	0.216142054021	1
1744.31859106	0	12	male	LowEff	house	present	1.21872260426	0.204942532564	1
1746.91817023	0	12	male	LowEff	house	absent	1.40105927695	0.162102297545	1
1750.51861655	0	12	male	LowEff	house	absent	2.45760532372	0.193509247435	1
