onset	duration	subject	task	trialHit	rt	acc
0.719311695073	0	5	house	Hit	None	0
2.70178128488	0	5	house	noHit	None	1
4.66783580899	0	5	house	noHit	None	1
6.63495380111	0	5	house	noHit	None	1
8.60107461184	0	5	house	noHit	None	1
10.5681048622	0	5	house	noHit	None	1
12.5342189482	0	5	house	noHit	None	1
14.5013628786	0	5	house	Hit	1.49006693348	1
16.4674452623	0	5	house	noHit	None	1
18.434529951	0	5	house	noHit	None	1
20.4006670932	0	5	house	noHit	None	1
22.3677261639	0	5	house	noHit	None	1
24.333880278	0	5	house	noHit	None	1
26.3009435116	0	5	house	noHit	1.49004387726	0
28.267056637	0	5	house	noHit	None	1
30.2341294773	0	5	house	noHit	None	1
32.2002205071	0	5	house	noHit	None	1
34.1673612352	0	5	house	noHit	None	1
36.1344494464	0	5	face	noHit	None	1
38.1005526447	0	5	face	noHit	None	1
40.0665998036	0	5	face	noHit	None	1
42.0337405317	0	5	face	noHit	None	1
43.9998619829	0	5	face	noHit	None	1
45.9668906322	0	5	face	noHit	None	1
47.9340172704	0	5	face	noHit	None	1
49.9001384013	0	5	face	noHit	None	1
51.866240639	0	5	face	noHit	None	1
53.833392575	0	5	face	noHit	None	1
55.7997506726	0	5	face	noHit	None	1
57.7686984317	0	5	face	noHit	None	1
59.7496863394	0	5	face	noHit	None	1
61.7166999381	0	5	face	noHit	None	1
63.6828454061	0	5	face	noHit	None	1
65.6488986494	0	5	face	Hit	1.49006116942	1
67.61600031	0	5	face	Hit	1.4900595683	1
69.5821435365	0	5	face	noHit	None	1
71.5492650511	0	5	house	noHit	None	1
73.5153852213	0	5	house	noHit	None	1
75.4823984998	0	5	house	Hit	1.49003266938	1
77.4485292375	0	5	house	Hit	1.49004291659	1
79.4156072015	0	5	house	noHit	None	1
81.3817260909	0	5	house	noHit	None	1
83.3488495268	0	5	house	noHit	None	1
85.3159143615	0	5	house	noHit	None	1
87.2831130504	0	5	house	noHit	None	1
89.2490904002	0	5	house	noHit	None	1
91.2151881547	0	5	house	noHit	None	1
93.1823045457	0	5	house	noHit	None	1
95.1484836375	0	5	house	noHit	None	1
97.1154940339	0	5	house	noHit	1.49002050082	0
99.0816327772	0	5	house	noHit	None	1
101.0487085	0	5	house	noHit	1.49003395028	0
103.01477199	0	5	house	noHit	None	1
104.981931932	0	5	house	noHit	None	1
106.948008231	0	5	face	noHit	None	1
108.915119498	0	5	face	noHit	None	1
110.882174086	0	5	face	Hit	1.49004387726	1
112.848292975	0	5	face	noHit	None	1
114.815364535	0	5	face	noHit	None	1
116.782437055	0	5	face	noHit	None	1
118.748626074	0	5	face	noHit	None	1
120.714697249	0	5	face	noHit	None	1
122.681772331	0	5	face	noHit	None	1
124.647914917	0	5	face	noHit	None	1
126.614971747	0	5	face	noHit	1.49003266938	0
128.58109608	0	5	face	Hit	1.49005604582	1
130.548162195	0	5	face	noHit	None	1
132.514287809	0	5	face	noHit	1.49002498397	0
134.481377942	0	5	face	noHit	None	1
136.447467371	0	5	face	noHit	None	1
138.414574155	0	5	face	noHit	None	1
140.38067255	0	5	face	noHit	None	1
142.347760121	0	5	house	noHit	None	1
144.313876128	0	5	house	noHit	None	1
146.280959215	0	5	house	noHit	None	1
148.24708579	0	5	house	noHit	None	1
150.214141018	0	5	house	noHit	None	1
152.180235891	0	5	house	Hit	1.49002754578	1
154.148333772	0	5	house	noHit	None	1
156.113572362	0	5	house	noHit	None	1
158.080572511	0	5	house	noHit	None	1
160.046684676	0	5	house	noHit	None	1
162.01286697	0	5	house	noHit	None	1
163.979830614	0	5	house	noHit	None	1
165.945957188	0	5	house	noHit	None	1
167.913041877	0	5	house	noHit	None	1
169.880155706	0	5	house	noHit	None	1
171.846239691	0	5	house	noHit	None	1
173.813335588	0	5	house	Hit	1.49004932109	1
175.779517241	0	5	house	noHit	None	1
177.746593284	0	5	face	Hit	None	0
179.712687196	0	5	face	noHit	None	1
181.679764839	0	5	face	noHit	None	1
183.645825448	0	5	face	noHit	None	1
185.612942159	0	5	face	noHit	None	1
187.579041515	0	5	face	noHit	None	1
189.546169114	0	5	face	noHit	None	1
191.512267508	0	5	face	noHit	None	1
193.479302882	0	5	face	noHit	None	1
195.445466283	0	5	face	noHit	None	1
197.412516067	0	5	face	Hit	None	0
199.378659934	0	5	face	noHit	None	1
201.345758393	0	5	face	noHit	None	1
203.311844619	0	5	face	noHit	None	1
205.278963892	0	5	face	noHit	None	1
207.245062607	0	5	face	noHit	None	1
209.21215338	0	5	face	noHit	None	1
211.178255298	0	5	face	noHit	None	1
213.145294514	0	5	house	noHit	None	1
215.111459836	0	5	house	noHit	None	1
217.078542924	0	5	house	noHit	None	1
219.044622746	0	5	house	Hit	None	0
221.011761553	0	5	house	noHit	None	1
222.97783529	0	5	house	noHit	None	1
224.944962249	0	5	house	noHit	None	1
226.911057762	0	5	house	noHit	None	1
228.878104984	0	5	house	noHit	None	1
230.844245328	0	5	house	noHit	None	1
232.811287747	0	5	house	noHit	None	1
234.777424569	0	5	house	noHit	None	1
236.744515983	0	5	house	noHit	None	1
238.710984238	0	5	house	Hit	1.4900240233	1
240.677730448	0	5	house	noHit	None	1
242.64380931	0	5	house	noHit	None	1
244.610927942	0	5	house	noHit	None	1
246.577175882	0	5	house	noHit	None	1
248.544108784	0	5	face	noHit	None	1
250.510227354	0	5	face	noHit	None	1
252.477271374	0	5	face	noHit	None	1
254.444445725	0	5	face	noHit	None	1
256.41047303	0	5	face	noHit	None	1
258.376603128	0	5	face	Hit	1.49003683231	1
260.343688136	0	5	face	Hit	1.490027866	1
262.309849936	0	5	face	noHit	None	1
264.276892995	0	5	face	noHit	None	1
266.243036862	0	5	face	noHit	None	1
268.210065191	0	5	face	noHit	None	1
270.176289755	0	5	face	noHit	None	1
272.143942203	0	5	face	noHit	None	1
274.110429031	0	5	face	noHit	None	1
276.076507893	0	5	face	noHit	None	1
278.042602765	0	5	face	noHit	None	1
280.009707948	0	5	face	noHit	None	1
281.976799362	0	5	face	noHit	None	1
283.942929139	0	5	house	noHit	None	1
285.909984046	0	5	house	noHit	None	1
287.876073795	0	5	house	noHit	None	1
289.843202035	0	5	house	noHit	None	1
291.809309076	0	5	house	noHit	None	1
293.775356235	0	5	house	noHit	None	1
295.74249312	0	5	house	noHit	None	1
297.708579987	0	5	house	noHit	None	1
299.675657951	0	5	house	Hit	1.49006533235	1
301.64298537	0	5	house	noHit	None	1
303.608822141	0	5	house	noHit	None	1
305.575945577	0	5	house	noHit	None	1
307.542066388	0	5	house	noHit	None	1
309.509175093	0	5	house	noHit	None	1
311.475256837	0	5	house	noHit	None	1
313.442389239	0	5	house	noHit	None	1
315.408505887	0	5	house	Hit	None	0
317.375649497	0	5	house	noHit	None	1
319.343714715	0	5	face	noHit	None	1
321.30876021	0	5	face	noHit	None	1
323.275910224	0	5	face	noHit	None	1
325.241978198	0	5	face	Hit	None	0
327.209064167	0	5	face	noHit	None	1
329.175143029	0	5	face	noHit	None	1
331.142340437	0	5	face	noHit	None	1
333.108398163	0	5	face	noHit	None	1
335.08851762	0	5	face	noHit	None	1
337.057684733	0	5	face	noHit	None	1
339.02465318	0	5	face	noHit	None	1
340.990774631	0	5	face	noHit	None	1
342.958033202	0	5	face	noHit	None	1
344.92397949	0	5	face	noHit	None	1
346.891083392	0	5	face	noHit	None	1
348.857148484	0	5	face	noHit	None	1
350.82428633	0	5	face	noHit	None	1
352.790361669	0	5	face	Hit	1.49002338285	1
354.757460768	0	5	house	noHit	None	1
356.723608797	0	5	house	noHit	None	1
358.690645132	0	5	house	noHit	None	1
360.656764022	0	5	house	noHit	None	1
362.623836542	0	5	house	Hit	1.49005316379	1
364.58991188	0	5	house	noHit	None	1
366.557045564	0	5	house	Hit	1.49002754577	1
368.523124105	0	5	house	noHit	None	1
370.490386518	0	5	house	noHit	None	1
372.457379623	0	5	house	noHit	None	1
374.423431905	0	5	house	noHit	None	1
376.389522294	0	5	house	noHit	None	1
378.356613388	0	5	house	noHit	None	1
380.322661827	0	5	house	noHit	None	1
382.289833297	0	5	house	noHit	None	1
384.255977164	0	5	house	noHit	None	1
386.223018943	0	5	house	noHit	None	1
388.189119899	0	5	house	noHit	None	1
390.156375268	0	5	face	noHit	None	1
392.122349736	0	5	face	noHit	None	1
394.089474133	0	5	face	noHit	None	1
396.055543387	0	5	face	noHit	None	1
398.022630317	0	5	face	noHit	None	1
399.988754971	0	5	face	Hit	1.49003779298	1
401.955808277	0	5	face	noHit	None	1
403.921929728	0	5	face	noHit	None	1
405.888999367	0	5	face	noHit	None	1
407.855123059	0	5	face	noHit	None	1
409.824216521	0	5	face	noHit	None	1
411.7893251	0	5	face	noHit	1.49003779298	0
413.757906841	0	5	face	Hit	1.49003523118	1
415.738542821	0	5	face	noHit	None	1
417.705572111	0	5	face	noHit	None	1
419.671745759	0	5	face	noHit	None	1
421.638862791	0	5	face	noHit	None	1
423.604936208	0	5	face	noHit	None	1
425.572005526	0	5	house	noHit	None	1
427.538185898	0	5	house	noHit	None	1
429.505184767	0	5	house	noHit	None	1
431.47129533	0	5	house	noHit	None	1
433.4384098	0	5	house	noHit	None	1
435.404503392	0	5	house	noHit	None	1
437.371611457	0	5	house	Hit	None	0
439.337740593	0	5	house	noHit	None	1
441.30483681	0	5	house	noHit	None	1
443.270896458	0	5	house	noHit	None	1
445.237973461	0	5	house	noHit	None	1
447.206108809	0	5	house	noHit	None	1
449.171184404	0	5	house	noHit	None	1
451.137317704	0	5	house	noHit	None	1
453.106386828	0	5	house	noHit	None	1
455.070483815	0	5	house	Hit	None	0
457.037589959	0	5	house	noHit	None	1
459.003700523	0	5	house	noHit	None	1
460.970806987	0	5	face	noHit	None	1
462.936899618	0	5	face	noHit	None	1
464.90401825	0	5	face	noHit	None	1
466.870134898	0	5	face	noHit	None	1
468.837175716	0	5	face	noHit	None	1
470.804269371	0	5	face	noHit	None	1
472.770381856	0	5	face	noHit	None	1
474.739557935	0	5	face	noHit	None	1
476.72055513	0	5	face	noHit	None	1
478.686762721	0	5	face	Hit	None	0
480.653812506	0	5	face	noHit	None	1
482.619863507	0	5	face	noHit	None	1
484.587064438	0	5	face	noHit	None	1
486.553065484	0	5	face	Hit	1.49004003456	1
488.519170924	0	5	face	noHit	None	1
490.487286098	0	5	face	noHit	None	1
492.453411071	0	5	face	noHit	None	1
494.419482887	0	5	face	noHit	None	1
496.386582947	0	5	house	noHit	None	1
498.352676539	0	5	house	noHit	1.49003587163	0
500.319752581	0	5	house	noHit	None	1
502.285850976	0	5	house	noHit	None	1
504.252999069	0	5	house	noHit	None	1
506.219049431	0	5	house	noHit	None	1
508.186193041	0	5	house	noHit	None	1
510.152223868	0	5	house	noHit	None	1
512.11935595	0	5	house	noHit	None	1
514.085460429	0	5	house	noHit	None	1
516.052540635	0	5	house	Hit	1.49004259636	1
518.019656706	0	5	house	noHit	None	1
519.985737809	0	5	house	noHit	None	1
521.951877192	0	5	house	Hit	None	0
523.918944269	0	5	house	noHit	None	1
525.885040102	0	5	house	noHit	None	1
527.852143364	0	5	house	noHit	None	1
529.818234714	0	5	house	noHit	None	1
531.785354307	0	5	face	noHit	None	1
533.751470955	0	5	face	noHit	None	1
535.718516576	0	5	face	Hit	None	0
537.684750106	0	5	face	noHit	None	1
539.651745131	0	5	face	noHit	None	1
541.617851212	0	5	face	noHit	None	1
543.584947108	0	5	face	noHit	None	1
545.551081369	0	5	face	noHit	None	1
547.518147804	0	5	face	noHit	None	1
549.484244919	0	5	face	noHit	None	1
551.451322882	0	5	face	noHit	None	1
553.417466749	0	5	face	Hit	None	0
555.384501163	0	5	face	noHit	None	1
557.35065976	0	5	face	noHit	None	1
559.317744769	0	5	face	noHit	None	1
561.283835479	0	5	face	noHit	None	1
563.250936819	0	5	face	noHit	1.49004771996	0
565.217013118	0	5	face	noHit	None	1
